timestamp,accX,accY,accZ,gyroX,gyroY,gyroZ,magX,magY,magZ,latitude,longitude,gpsAltitude,Speed,SatCount,roll,pitch,yaw,pressure,temperature,paltitude
118035,0.00,-0.00,1.00,0.00,-0.24,-0.06,-17.00,-6.00,47.00,53.650921,9.698256,5.90,0.20,12,3.960,0,4,-1,8,1
120400,-0.00,-0.00,1.00,-0.12,0.00,-0.12,-12.00,-5.00,42.00,53.650921,9.698256,5.90,0.20,12,3.950,0,5,-1,8,1
120502,0.02,0.13,0.97,-1.04,-0.73,7.87,-19.00,-4.00,45.00,53.650917,9.698243,5.70,0.63,12,3.990,0,9,-1,8,1
120602,0.01,0.00,1.00,-0.12,0.00,-0.24,-13.00,-3.00,45.00,53.650917,9.698243,5.70,0.63,12,3.940,0,14,-1,8,1
120702,-0.00,-0.01,1.00,0.00,0.06,-1.16,-16.00,-7.00,40.00,53.650917,9.698243,5.70,0.63,12,3.890,0,23,-1,8,1
120802,-0.00,-0.00,1.00,0.06,-0.37,-1.40,-13.00,-4.00,44.00,53.650917,9.698243,5.70,0.63,12,3.860,0,46,-1,8,1
120902,-0.01,-0.00,1.00,0.12,0.12,0.49,-11.00,-6.00,44.00,53.650917,9.698243,5.70,0.63,12,3.920,0,82,-1,8,1
121002,0.00,-0.01,1.00,-0.06,0.24,0.31,-10.00,-4.00,45.00,53.650917,9.698243,5.70,0.63,12,3.920,0,126,-1,8,1
121102,0.01,0.00,1.01,-0.06,0.37,0.12,-13.00,-3.00,43.00,53.650917,9.698243,5.70,0.63,12,3.860,0,163,-1,8,1
121202,-0.00,0.01,1.00,0.06,-0.24,-0.24,-18.00,-5.00,43.00,53.650917,9.698243,5.70,0.63,12,3.930,0,183,-1,8,1
121302,0.01,-0.00,1.00,0.06,-0.55,-0.18,-16.00,-4.00,51.00,53.650917,9.698243,5.70,0.63,12,3.900,0,190,-1,8,1
121407,-0.01,0.00,1.00,-0.06,-0.06,-0.06,-7.00,-2.00,44.00,53.650917,9.698243,5.70,0.63,12,3.900,0,186,-1,8,1
121507,-0.00,0.00,1.00,0.18,0.55,0.06,-20.00,-4.00,44.00,53.650917,9.698245,5.70,0.28,12,3.860,0,182,-1,8,1
121607,-0.02,-0.00,0.96,0.24,1.34,0.24,-10.00,-3.00,39.00,53.650917,9.698245,5.70,0.20,12,3.810,-1,174,-1,8,1
121707,0.01,-0.00,0.99,0.06,0.00,-0.12,-10.00,-5.00,47.00,53.650917,9.698245,5.70,0.20,12,3.930,0,161,-1,8,1
121807,0.00,0.00,1.01,-0.06,-0.12,-0.49,-12.00,-4.00,45.00,53.650917,9.698245,5.70,0.20,12,3.890,0,158,-1,8,1
121907,-0.01,-0.00,1.00,0.06,-0.12,-0.06,-13.00,-4.00,44.00,53.650917,9.698245,5.70,0.20,12,3.930,0,159,-1,8,1
122007,-0.00,-0.00,1.00,-0.06,0.49,0.31,-15.00,-4.00,46.00,53.650917,9.698245,5.70,0.20,12,3.950,0,162,-1,8,1
122107,-0.00,0.01,1.00,0.00,0.31,0.18,-12.00,-3.00,42.00,53.650917,9.698245,5.70,0.20,12,3.900,0,166,-1,8,1
122208,0.01,-0.01,1.00,0.06,-0.12,-0.12,-10.00,-5.00,46.00,53.650917,9.698245,5.70,0.20,12,3.810,0,156,-1,8,1
122308,-0.00,-0.00,1.00,-0.12,-0.43,-0.37,-13.00,-6.00,42.00,53.650917,9.698245,5.70,0.20,12,3.850,0,153,-1,8,1
122408,-0.00,0.01,1.00,0.06,-0.31,-0.12,-13.00,-2.00,40.00,53.650917,9.698245,5.70,0.20,12,3.880,0,166,-1,8,1
122551,0.00,-0.02,1.01,0.00,0.55,0.12,-17.00,-5.00,39.00,53.650917,9.698245,5.70,0.09,12,3.940,0,165,-1,8,1
122652,-0.00,0.00,0.99,-0.12,-0.12,0.06,-11.00,-5.00,42.00,53.650917,9.698245,5.70,0.09,12,3.900,0,157,-1,8,1
122752,0.00,0.00,1.00,0.00,-0.49,-0.06,-13.00,-3.00,44.00,53.650917,9.698246,5.70,0.06,12,3.870,0,164,-1,8,1
122854,-0.00,-0.00,1.00,0.12,0.00,-0.12,-14.00,-5.00,43.00,53.650917,9.698246,5.70,0.06,12,3.820,0,161,-1,8,1
122954,-0.00,0.00,1.00,0.12,0.31,0.06,-12.00,-3.00,50.00,53.650917,9.698246,5.70,0.19,12,3.910,0,165,-1,8,1
123054,0.00,-0.00,1.00,0.06,0.06,0.12,-15.00,-4.00,45.00,53.650917,9.698246,5.70,0.15,12,3.950,0,165,-1,8,1
123154,-0.00,-0.00,1.00,-0.06,0.37,0.00,-13.00,-2.00,42.00,53.650917,9.698246,5.70,0.17,12,3.830,0,169,-1,8,1
123254,0.00,0.00,1.00,0.06,0.18,0.00,-11.00,-4.00,44.00,53.650917,9.698246,5.70,0.17,12,3.870,0,162,-1,8,1
123354,0.01,-0.00,1.01,0.06,0.00,0.00,-16.00,-4.00,45.00,53.650917,9.698246,5.70,0.17,12,3.890,0,164,-1,8,1
123454,-0.00,-0.00,1.00,0.00,0.31,-0.18,-10.00,-4.00,47.00,53.650917,9.698246,5.70,0.17,12,3.820,0,158,-1,8,1
123560,-0.00,0.00,1.01,0.00,-0.12,-0.12,-14.00,-7.00,44.00,53.650917,9.698246,5.70,0.17,12,3.840,0,153,-1,8,1
123660,0.01,-0.00,1.03,0.24,0.43,-0.06,-12.00,-4.00,42.00,53.650917,9.698246,5.70,0.17,12,3.940,0,160,-1,8,1
123760,0.01,0.00,1.00,-0.37,-1.46,-0.12,-14.00,-5.00,49.00,53.650917,9.698246,5.70,0.17,12,3.940,1,159,-1,8,1
123860,0.01,0.01,1.01,0.06,-0.31,-0.31,-13.00,-5.00,46.00,53.650917,9.698246,5.70,0.17,12,3.960,0,160,-1,8,1
123960,-0.01,-0.01,0.99,0.06,-0.06,-0.18,-13.00,-3.00,45.00,53.650917,9.698246,5.80,0.17,12,3.930,0,165,-1,8,1
124060,-0.01,0.00,1.00,-0.12,0.00,0.06,-15.00,-4.00,42.00,53.650917,9.698246,5.70,0.17,12,3.880,0,165,-1,8,1
124160,0.00,0.01,1.00,0.12,0.06,0.24,-18.00,-4.00,43.00,53.650917,9.698246,5.80,0.17,12,3.900,0,168,-1,8,1
124262,0.00,-0.01,1.00,0.06,-0.06,-0.18,-19.00,-2.00,47.00,53.650917,9.698246,5.80,0.07,12,3.920,0,172,-1,8,1
124362,-0.00,-0.00,1.00,-0.12,-0.18,-0.31,-11.00,-5.00,46.00,53.650917,9.698246,5.80,0.09,12,3.850,0,156,-1,8,1
124462,-0.01,0.01,1.00,0.06,0.18,0.00,-15.00,-3.00,43.00,53.650917,9.698246,5.80,0.09,12,3.900,0,168,-1,8,1
124562,0.00,-0.01,1.00,-0.06,0.12,0.18,-13.00,-4.00,40.00,53.650917,9.698246,5.80,0.09,12,3.880,0,163,-1,8,1
124662,0.00,0.00,1.00,-0.18,0.00,-0.06,-13.00,-2.00,50.00,53.650917,9.698246,5.80,0.09,12,3.830,0,169,-1,8,1
124762,-0.00,0.00,1.00,0.06,-0.24,-0.18,-13.00,-5.00,44.00,53.650917,9.698246,5.80,0.09,12,3.910,0,160,-1,8,1
124862,-0.00,-0.00,1.00,0.12,-0.06,-0.18,-15.00,-4.00,43.00,53.650917,9.698246,5.80,0.09,12,3.910,0,164,-1,8,1
124962,-0.00,-0.00,1.00,0.00,0.18,0.18,-13.00,-5.00,44.00,53.650917,9.698246,5.80,0.09,12,3.860,0,159,-1,8,1
125062,0.00,0.01,1.00,0.06,0.00,0.12,-15.00,-2.00,41.00,53.650917,9.698246,5.80,0.54,12,3.900,0,172,-1,8,1
125162,0.00,-0.00,1.00,0.06,0.06,-0.06,-12.00,-4.00,42.00,53.650917,9.698247,5.80,0.35,12,3.920,0,162,-1,8,1
125262,-0.00,-0.00,1.00,0.00,-0.12,-0.18,-12.00,-4.00,45.00,53.650917,9.698247,5.80,0.35,12,3.860,0,160,-1,8,1
125362,-0.00,0.00,1.00,0.00,-0.18,-0.12,-15.00,-5.00,45.00,53.650917,9.698247,5.80,0.35,12,3.920,0,162,-1,8,1
125462,-0.00,-0.00,1.00,0.00,0.12,0.06,-16.00,-4.00,40.00,53.650917,9.698247,5.80,0.35,12,3.930,0,165,-1,8,1
125562,0.00,-0.00,1.00,0.00,0.06,0.12,-18.00,-5.00,44.00,53.650917,9.698247,5.80,0.35,12,3.920,0,164,-1,8,1
125662,0.00,0.00,1.00,0.06,-0.06,-0.12,-13.00,-5.00,47.00,53.650917,9.698247,5.80,0.35,12,4.020,0,159,-1,8,1
125762,-0.00,-0.00,1.00,0.12,-0.06,-0.18,-18.00,-5.00,41.00,53.650917,9.698247,5.80,0.35,12,3.930,0,163,-1,8,1
125862,-0.00,0.00,1.00,0.06,0.00,0.12,-13.00,-4.00,46.00,53.650917,9.698248,5.80,0.35,12,3.920,0,163,-1,8,1
125962,-0.00,-0.00,1.00,0.12,0.00,0.00,-18.00,-4.00,37.00,53.650917,9.698248,5.80,0.35,12,3.900,0,167,-1,8,1
126062,0.01,0.00,1.01,0.00,-0.12,-0.18,-16.00,-4.00,46.00,53.650917,9.698248,5.80,0.19,12,3.940,0,165,-1,8,1
126162,-0.00,0.00,1.00,0.00,-0.12,-0.12,-11.00,-3.00,48.00,53.650917,9.698248,5.80,0.19,12,3.860,0,165,-1,8,1
126262,-0.00,-0.00,1.00,0.00,0.24,-0.06,-12.00,-5.00,38.00,53.650917,9.698248,5.80,0.13,12,3.940,0,157,-1,8,1
126362,0.00,-0.01,1.00,-0.49,-0.79,-0.24,-13.00,-5.00,45.00,53.650917,9.698247,5.80,1.06,12,3.900,0,156,-1,8,1
126462,-0.00,-0.01,1.01,-0.24,-0.73,-3.23,-14.00,-4.00,38.00,53.650917,9.698247,5.80,1.06,12,3.900,0,162,-1,8,1
126562,-0.01,0.01,1.00,-0.43,-0.79,-0.31,-13.00,-3.00,39.00,53.650917,9.698247,5.80,1.06,12,3.930,0,168,-1,8,1
126672,-0.00,0.00,1.00,-0.06,-0.12,0.12,-15.00,-5.00,40.00,53.650917,9.698247,5.80,1.06,12,3.920,0,162,-1,8,1
126772,-0.00,0.01,0.98,-0.61,-0.67,0.00,-11.00,-7.00,49.00,53.650917,9.698247,5.80,1.06,12,3.920,0,148,-1,8,1
126906,-0.00,0.01,0.99,0.18,-0.06,-0.67,-10.00,-7.00,45.00,53.650917,9.698247,5.80,1.06,12,3.920,0,146,-1,8,1
127006,-0.02,0.01,0.99,0.12,-0.18,-0.61,-13.00,-2.00,42.00,53.650917,9.698247,5.80,1.06,12,3.870,0,172,-1,8,1
127106,-0.01,0.00,1.01,1.40,1.53,-0.24,-13.00,-2.00,44.00,53.650917,9.698247,5.80,1.06,12,3.870,0,173,-1,8,1
127206,-0.01,-0.00,1.00,0.43,0.55,0.24,-18.00,-7.00,45.00,53.650917,9.698247,5.80,1.06,12,3.850,0,159,-1,8,1
127306,-0.01,0.01,0.99,0.00,0.06,0.24,-10.00,-4.00,42.00,53.650917,9.698247,5.80,1.06,12,3.890,0,158,-1,8,1
127409,0.00,0.00,1.00,0.37,0.31,0.00,-13.00,-4.00,43.00,53.650917,9.698247,5.80,1.06,12,3.870,0,163,-1,8,1
127509,-0.01,-0.00,1.00,-0.12,0.06,-0.06,-11.00,-3.00,45.00,53.650917,9.698247,5.80,1.06,12,3.900,0,163,-1,8,1
127609,-0.00,0.00,1.00,-0.24,-0.43,0.00,-17.00,-2.00,44.00,53.650917,9.698247,5.80,1.06,12,3.890,0,173,-1,8,1
127709,-0.01,0.01,1.00,-0.12,-0.24,-0.06,-13.00,-4.00,43.00,53.650917,9.698247,5.80,1.06,12,3.850,0,164,-1,8,1
127809,-0.01,-0.00,0.99,0.61,0.55,-0.12,-12.00,-4.00,40.00,53.650917,9.698247,5.80,1.06,12,3.940,0,162,-1,8,1
127910,-0.01,-0.00,1.01,0.24,0.24,0.00,-10.00,-3.00,44.00,53.650917,9.698247,5.80,1.06,12,3.940,0,162,-1,8,1
128010,-0.01,0.00,1.00,0.12,0.31,0.31,-11.00,-5.00,45.00,53.650917,9.698247,5.80,1.06,12,3.920,0,156,-2,8,1
128110,-0.00,-0.00,0.99,-0.43,-0.06,0.18,-13.00,-5.00,44.00,53.650917,9.698247,5.80,1.06,12,3.940,0,158,-1,8,1
128210,0.00,-0.00,1.00,0.37,0.18,-0.12,-17.00,-3.00,43.00,53.650917,9.698247,5.80,1.06,12,3.950,0,169,-1,8,1
128310,-0.00,0.01,1.00,1.04,0.73,-0.37,-14.00,-5.00,46.00,53.650917,9.698247,5.80,1.06,12,3.940,0,162,-1,8,1
128410,-0.01,0.00,1.00,0.00,0.00,-0.06,-19.00,-3.00,46.00,53.650917,9.698247,5.80,1.06,12,3.940,0,170,-1,8,1
128511,-0.01,-0.00,0.98,-0.43,-0.31,0.24,-13.00,-4.00,42.00,53.650917,9.698245,5.80,0.43,12,3.940,0,163,-1,8,1
128611,-0.00,0.01,0.99,0.49,0.55,0.18,-14.00,-5.00,43.00,53.650917,9.698245,5.80,0.43,12,3.820,0,161,-1,8,1
128711,-0.00,0.01,0.98,0.92,0.92,-0.12,-13.00,-4.00,45.00,53.650917,9.698245,5.80,0.43,12,3.870,0,164,-1,8,1
128812,-0.01,0.00,0.98,-0.24,-0.37,0.00,-12.00,-4.00,44.00,53.650917,9.698245,5.80,0.43,12,3.880,0,162,-1,8,1
128912,-0.00,0.01,0.97,-0.31,0.12,0.12,-10.00,-3.00,40.00,53.650917,9.698245,5.80,0.43,12,3.890,0,164,-1,8,1
129012,0.00,0.00,1.00,-0.12,-0.31,0.06,-12.00,-3.00,43.00,53.650917,9.698245,5.80,0.43,12,3.920,0,166,-1,8,1
129112,0.00,-0.00,1.00,0.06,0.12,-0.43,-15.00,-6.00,41.00,53.650917,9.698245,5.80,0.43,12,3.780,0,157,-1,8,1
129213,0.00,0.00,1.00,-0.12,-0.37,-0.24,-18.00,-2.00,42.00,53.650917,9.698245,5.80,0.43,12,3.900,0,173,-1,8,1
129313,-0.01,0.01,0.99,0.37,0.43,0.43,-18.00,-2.00,45.00,53.650917,9.698245,5.80,0.43,12,3.930,0,175,-1,8,1
129413,-0.01,-0.04,1.01,-1.46,-1.16,-1.40,-14.00,-6.00,44.00,53.650917,9.698245,5.80,0.43,12,3.922,0,150,-1,8,1
129513,0.01,0.02,1.01,-0.79,-0.49,0.06,-12.00,-4.00,44.00,53.650917,9.698245,5.60,0.43,12,3.90-1,0,164,-1,8,1
129613,0.00,0.00,1.01,-0.67,-1.04,0.61,-12.00,-5.00,43.00,53.650917,9.698245,5.60,0.11,12,3.900,0,158,-1,8,1
129713,-0.00,-0.02,1.00,-0.49,-0.43,0.31,-11.00,-3.00,43.00,53.650917,9.698245,5.60,0.11,12,3.920,0,161,-1,8,1
129813,-0.00,0.01,0.99,0.00,0.43,0.24,-15.00,-4.00,43.00,53.650917,9.698245,5.60,0.11,12,3.860,0,166,-1,8,1
129913,0.00,0.01,1.00,0.06,0.24,0.12,-15.00,-4.00,38.00,53.650917,9.698245,5.60,0.11,12,3.910,0,166,-1,8,1
130013,0.00,-0.01,1.00,0.06,-0.49,-0.18,-11.00,-3.00,45.00,53.650917,9.698245,5.60,0.11,12,3.880,0,162,-1,8,1
130115,-0.00,-0.00,1.00,-0.12,-0.43,-0.31,-13.00,-3.00,45.00,53.650917,9.698245,5.60,0.11,12,3.850,0,166,-1,8,1
130219,-0.01,0.01,1.00,0.06,0.24,-0.06,-10.00,-4.00,47.00,53.650917,9.698245,5.60,0.11,12,3.870,0,161,-1,8,1
130319,0.00,-0.01,1.00,0.06,0.31,0.31,-19.00,-3.00,45.00,53.650917,9.698245,5.60,0.11,12,3.930,0,169,-1,8,1
130419,0.01,-0.00,1.00,-0.12,0.06,0.12,-13.00,-3.00,45.00,53.650917,9.698245,5.60,0.11,12,3.940,0,166,-1,8,1
130527,-0.00,0.01,1.00,0.12,-0.12,-0.37,-12.00,-4.00,47.00,53.650917,9.698245,5.60,0.11,12,3.870,0,162,-2,8,1
130627,-0.00,-0.01,1.00,0.00,-0.18,-0.18,-12.00,-4.00,43.00,53.650917,9.698245,5.60,0.11,12,3.920,0,160,-1,8,1
130730,-0.01,0.00,1.00,-0.06,0.00,0.06,-20.00,-2.00,36.00,53.650917,9.698246,5.60,0.93,12,3.890,0,174,-1,8,1
130834,0.00,0.00,1.00,0.12,0.12,0.06,-13.00,-4.00,42.00,53.650917,9.698246,5.60,0.93,12,3.850,0,163,-1,8,1
130934,0.00,-0.00,1.00,0.00,0.00,-0.12,-19.00,-4.00,40.00,53.650917,9.698246,5.60,0.93,12,3.920,0,167,-1,8,1
131034,-0.00,0.00,1.00,0.00,-0.24,0.00,-16.00,-6.00,46.00,53.650917,9.698246,5.60,0.93,12,3.930,0,159,-1,8,1
131134,-0.00,0.00,1.00,0.00,-0.06,0.00,-12.00,-5.00,47.00,53.650917,9.698246,5.60,0.93,12,3.930,0,157,-1,8,1
131234,-0.00,-0.00,1.00,0.00,0.12,-0.06,-12.00,-4.00,48.00,53.650917,9.698246,5.60,0.93,12,3.930,0,161,-2,8,1
131344,-0.00,0.00,1.00,0.00,-0.06,-0.06,-17.00,-3.00,45.00,53.650917,9.698246,5.60,0.93,12,3.810,0,170,-1,8,1
131444,-0.00,0.00,1.00,0.00,0.00,-0.06,-16.00,-5.00,39.00,53.650917,9.698246,5.60,0.93,12,3.820,0,162,-1,8,1
131544,-0.01,-0.00,1.00,0.06,0.31,0.06,-9.00,-6.00,47.00,53.650917,9.698246,5.60,0.93,12,3.820,0,147,-2,8,1
131644,-0.00,-0.00,1.00,0.00,0.43,0.24,-12.00,-5.00,45.00,53.650917,9.698246,5.60,0.93,12,3.910,0,157,-1,8,1
131744,0.01,0.00,1.00,0.12,0.12,0.12,-13.00,-2.00,49.00,53.650917,9.698246,5.60,0.93,12,3.850,0,171,-2,8,1
131846,0.01,0.00,1.00,0.00,-0.49,-0.37,-12.00,-5.00,47.00,53.650917,9.698246,5.60,0.33,12,3.940,0,157,-1,8,1
131946,-0.01,-0.00,1.00,-0.06,-0.37,-0.37,-18.00,-4.00,44.00,53.650917,9.698246,5.60,0.33,12,3.880,0,167,-1,8,1
132046,-0.00,0.00,1.00,-0.06,0.31,0.24,-13.00,-4.00,45.00,53.650917,9.698246,5.60,0.33,12,3.800,0,163,-1,8,1
132147,0.00,0.00,1.00,0.00,-0.12,0.31,-11.00,-4.00,43.00,53.650917,9.698246,5.60,0.33,12,3.940,0,160,-1,8,1
132247,0.01,-0.01,1.00,0.06,-0.12,-0.12,-10.00,-6.00,44.00,53.650917,9.698245,5.60,0.22,12,3.960,0,147,-1,8,1
132347,-0.00,0.00,1.00,0.00,-0.24,-0.37,-15.00,-3.00,43.00,53.650917,9.698245,5.60,0.22,12,3.870,0,168,-1,8,1
132465,-0.01,-0.00,1.00,0.12,-0.12,-0.12,-12.00,-5.00,41.00,53.650917,9.698245,5.60,0.22,12,3.740,0,158,-1,8,1
132566,-0.01,-0.00,1.00,0.06,0.49,0.49,-13.00,-4.00,42.00,53.650917,9.698245,5.60,0.22,12,3.910,0,163,-1,8,1
132666,0.01,-0.00,1.00,-0.06,0.49,0.12,-19.00,-4.00,39.00,53.650917,9.698245,5.60,0.22,12,3.790,0,167,-1,8,1
132771,0.01,-0.00,1.00,0.00,-0.55,-0.43,-15.00,-4.00,47.00,53.650917,9.698245,5.60,0.22,12,3.870,0,164,-2,8,1
132871,-0.01,-0.00,1.00,-0.06,0.12,-0.43,-13.00,-4.00,46.00,53.650917,9.698245,5.60,0.22,12,3.810,0,163,-2,8,1
132971,-0.00,0.00,1.00,-0.06,0.31,0.24,-12.00,-2.00,46.00,53.650917,9.698246,5.50,0.22,12,3.900,0,170,-2,8,1
133071,0.01,0.00,1.00,0.12,0.06,0.31,-13.00,-4.00,46.00,53.650917,9.698246,5.50,0.22,12,3.910,0,162,-1,8,1
133171,-0.01,-0.00,1.00,0.06,0.31,-0.24,-12.00,-4.00,43.00,53.650917,9.698246,5.50,0.22,12,3.820,0,161,-1,8,1
133271,0.01,0.01,0.99,-0.31,0.18,-0.24,-13.00,-4.00,38.00,53.650917,9.698246,5.50,0.22,12,3.930,0,163,-1,8,1
133371,-0.01,0.00,1.00,0.00,-0.18,0.00,-14.00,-4.00,43.00,53.650917,9.698246,5.50,0.15,12,3.940,0,164,-2,8,1
133471,0.00,-0.00,1.00,0.06,-0.12,-0.06,-20.00,-4.00,40.00,53.650917,9.698246,5.50,0.15,12,3.930,0,168,-1,8,1
133582,0.00,0.00,1.00,-0.06,-0.06,0.00,-12.00,-2.00,38.00,53.650917,9.698246,5.50,0.15,12,3.870,0,170,-2,8,1
133682,-0.01,0.00,1.00,0.18,0.12,0.06,-13.00,-2.00,43.00,53.650917,9.698246,5.50,0.15,12,3.920,0,171,-2,8,1
133782,-0.00,-0.01,0.98,-0.73,0.24,0.24,-11.00,-5.00,43.00,53.650917,9.698246,5.50,0.15,12,3.810,0,154,-2,8,1
133882,0.01,0.01,1.01,-0.18,0.06,0.12,-14.00,-4.00,44.00,53.650917,9.698246,5.50,0.15,12,3.930,0,165,-1,8,1
133982,-0.00,0.00,1.00,-0.61,-0.12,-0.61,-17.00,-4.00,45.00,53.650917,9.698246,5.50,0.15,12,3.920,0,167,-1,8,1
134083,-0.03,-0.00,1.01,-0.18,1.04,5.07,-14.00,-4.00,43.00,53.650917,9.698246,5.50,0.15,12,3.890,-1,165,-1,8,1
134183,-0.00,0.01,1.00,0.06,-0.06,0.37,-11.00,-7.00,43.00,53.650917,9.698246,5.50,0.15,12,3.900,0,149,-1,8,1
134283,-0.00,0.01,1.00,0.55,0.31,-1.28,-14.00,-5.00,47.00,53.650917,9.698246,5.50,0.15,12,3.910,0,162,-1,8,1
134383,-0.01,-0.00,0.99,-0.31,0.55,-0.85,-17.00,-5.00,42.00,53.650917,9.698246,5.50,0.15,12,3.870,0,163,-2,8,1
134483,0.00,0.01,1.00,0.12,0.18,-0.18,-12.00,-6.00,45.00,53.650917,9.698247,5.40,0.20,12,3.950,0,154,-1,8,1
134583,0.00,-0.00,1.00,0.12,-0.18,-0.06,-13.00,-4.00,45.00,53.650917,9.698247,5.40,0.30,12,3.940,0,162,-1,8,1
134683,0.00,-0.01,1.00,-0.06,-0.31,0.06,-14.00,-4.00,43.00,53.650917,9.698247,5.40,0.30,12,3.900,0,162,-1,8,1
134791,0.00,0.00,1.00,-0.06,0.18,0.12,-16.00,-3.00,46.00,53.650917,9.698247,5.40,0.30,12,3.920,0,169,-1,8,1
134891,-0.00,0.01,1.00,-0.31,3.36,5.74,-13.00,-4.00,46.00,53.650917,9.698247,5.40,0.30,12,3.930,0,165,-1,8,1
134991,-0.00,-0.01,1.01,-0.92,-0.85,1.53,-14.00,-4.00,42.00,53.650917,9.698247,5.40,0.30,12,3.840,0,162,-1,8,1
135091,0.00,-0.00,1.00,-0.06,-0.49,0.31,-18.00,-5.00,43.00,53.650917,9.698247,5.40,0.30,12,3.910,0,164,-1,8,1
135191,-0.00,0.00,1.00,0.06,0.43,-0.12,-14.00,-3.00,45.00,53.650917,9.698247,5.40,0.30,12,3.900,0,168,-1,8,1
135291,0.01,0.00,1.00,0.00,-0.49,-0.43,-14.00,-5.00,45.00,53.650917,9.698247,5.40,0.30,12,3.810,0,159,-1,8,1
135391,-0.01,-0.00,0.99,-0.06,-0.43,-0.49,-15.00,-4.00,42.00,53.650917,9.698247,5.40,0.30,12,3.840,0,165,-1,8,1
135491,-0.01,0.00,1.00,0.00,0.12,0.00,-12.00,-5.00,45.00,53.650917,9.698247,5.40,0.52,12,3.940,0,158,-1,8,1
135591,-0.00,0.00,1.00,0.06,0.37,0.55,-14.00,-4.00,45.00,53.650917,9.698247,5.40,0.52,12,3.900,0,164,-1,8,1
135693,0.01,-0.00,1.00,0.00,0.06,0.12,-13.00,-4.00,42.00,53.650917,9.698247,5.40,0.52,12,3.840,0,161,-1,8,1
135793,0.01,0.00,1.00,0.00,-0.06,-0.24,-13.00,-5.00,39.00,53.650917,9.698247,5.40,0.52,12,3.920,0,158,-1,8,1
135893,-0.01,0.01,0.99,0.06,0.00,-0.06,-13.00,-4.00,47.00,53.650917,9.698247,5.40,0.52,12,3.930,0,164,-1,8,1
135993,0.00,-0.00,1.01,0.00,0.06,0.24,-14.00,-5.00,38.00,53.650917,9.698247,5.40,0.52,12,3.840,0,159,-1,8,1
136093,-0.00,-0.00,1.00,-0.06,0.43,0.31,-12.00,-4.00,46.00,53.650917,9.698247,5.40,0.52,12,3.850,0,161,-1,8,1
136193,0.00,0.01,1.00,-0.06,-0.06,-0.12,-12.00,-5.00,41.00,53.650917,9.698247,5.40,0.52,12,3.900,0,158,-1,8,1
136295,0.00,-0.00,1.02,0.06,-0.49,-0.24,-19.00,-3.00,46.00,53.650917,9.698247,5.40,0.52,12,3.900,0,170,-1,8,1
136395,-0.00,-0.00,0.99,0.00,-0.06,0.00,-18.00,-5.00,43.00,53.650917,9.698247,5.40,0.52,12,3.890,0,164,-1,8,1
136496,-0.00,0.01,1.01,0.00,0.12,0.12,-11.00,-6.00,40.00,53.650917,9.698246,5.30,0.52,12,3.900,0,152,-1,8,1
136596,0.01,0.00,1.00,0.00,0.06,0.18,-13.00,-1.00,42.00,53.650917,9.698246,5.30,0.69,12,3.930,0,175,-1,8,1
136696,0.00,-0.01,1.00,0.18,-0.67,-0.24,-17.00,-4.00,51.00,53.650917,9.698246,5.30,0.69,12,3.930,0,165,-1,8,1
136796,-0.00,0.00,1.00,0.00,-0.43,-0.24,-15.00,-3.00,47.00,53.650917,9.698246,5.30,0.69,12,3.910,0,169,-1,8,1
136914,0.00,-0.00,1.00,0.18,-0.85,0.06,-12.00,-4.00,45.00,53.650917,9.698246,5.30,0.69,12,3.840,0,160,-1,8,1
137014,-0.01,0.01,1.04,0.00,0.24,-0.06,-12.00,-2.00,45.00,53.650917,9.698246,5.30,0.69,12,3.910,0,172,-1,8,1
137114,-0.00,-0.01,1.00,0.18,0.61,0.06,-12.00,-5.00,45.00,53.650917,9.698246,5.30,0.69,12,3.900,0,156,-1,8,1
137214,0.00,0.00,1.01,0.06,-0.18,0.12,-15.00,-5.00,47.00,53.650917,9.698246,5.30,0.69,12,3.850,0,161,-1,8,1
137314,0.00,0.00,1.00,0.06,-0.55,0.00,-19.00,-3.00,45.00,53.650917,9.698246,5.30,0.69,12,3.890,0,171,-1,8,1
137414,0.01,0.00,0.99,0.24,-0.06,-0.18,-17.00,-5.00,46.00,53.650917,9.698246,5.30,0.69,12,3.920,0,163,-1,8,1
137514,-0.00,-0.00,1.00,0.49,-0.61,0.18,-13.00,-5.00,47.00,53.650917,9.698246,5.30,0.69,12,3.920,0,158,-1,8,1
137614,-0.00,0.00,1.01,0.06,-0.79,0.31,-15.00,-4.00,42.00,53.650917,9.698246,5.30,0.69,12,3.900,0,165,-1,8,1
137714,-0.02,0.01,0.96,0.37,-2.26,0.00,-12.00,-3.00,47.00,53.650917,9.698246,5.30,0.69,12,3.940,-1,169,-1,8,1
137814,0.00,-0.01,1.01,-0.06,-0.49,-0.43,-19.00,-4.00,48.00,53.650917,9.698246,5.30,0.69,12,3.870,0,166,-1,8,1
137914,-0.01,-0.01,1.00,-0.18,-0.79,-0.18,-12.00,-5.00,48.00,53.650917,9.698246,5.30,0.69,12,3.910,0,156,-1,8,1
138014,-0.02,0.01,1.00,-0.24,0.73,0.00,-11.00,-4.00,46.00,53.650917,9.698246,5.30,0.69,12,3.800,-1,163,-1,8,1
138114,0.01,0.01,1.00,-0.18,-0.85,0.18,-12.00,-3.00,46.00,53.650917,9.698246,5.30,0.69,12,3.920,0,167,-1,8,1
138214,0.01,-0.01,1.02,0.06,-0.61,-0.61,-12.00,-4.00,46.00,53.650917,9.698246,5.30,0.69,12,3.940,0,158,-1,8,1
138314,-0.01,0.00,1.00,-0.18,-0.98,-0.79,-13.00,-4.00,41.00,53.650917,9.698246,5.30,0.69,12,3.860,0,163,-1,8,1
138414,-0.02,0.01,1.01,0.73,2.62,0.12,-11.00,-2.00,45.00,53.650917,9.698246,5.30,0.69,12,3.930,-1,172,-1,8,1
138514,-0.01,-0.01,1.01,0.43,2.38,0.79,-11.00,-2.00,45.00,53.650917,9.698246,5.30,0.69,12,3.850,0,168,-2,8,1
138614,0.02,0.01,0.98,-0.49,1.46,0.31,-12.00,-4.00,48.00,53.650917,9.698243,5.00,0.20,12,3.900,0,161,-1,8,1
138714,-0.00,-0.01,0.99,0.12,-0.24,-0.43,-15.00,-5.00,44.00,53.650917,9.698243,5.00,0.20,12,3.920,0,160,-1,8,1
138836,0.00,0.00,1.00,-0.06,-0.67,-0.55,-13.00,-7.00,40.00,53.650917,9.698243,5.00,0.20,12,3.850,0,152,-1,8,1
138936,-0.01,0.00,1.00,0.06,-0.06,0.12,-13.00,-4.00,39.00,53.650917,9.698243,5.00,0.20,12,3.860,0,163,-1,8,1
139036,-0.00,-0.01,1.00,-0.06,0.49,0.24,-13.00,-7.00,41.00,53.650917,9.698243,5.00,0.20,12,3.910,0,151,-1,8,1
139151,0.01,0.00,1.00,-0.06,-0.18,-0.12,-15.00,-8.00,47.00,53.650917,9.698244,5.00,0.28,12,3.870,0,151,-1,8,1
139251,-0.00,-0.00,1.00,0.06,-0.24,-0.31,-14.00,-6.00,47.00,53.650917,9.698244,5.20,0.37,12,3.910,0,156,-1,8,1
139351,-0.01,-0.00,1.00,0.06,-0.12,-0.18,-14.00,-7.00,45.00,53.650917,9.698244,5.20,0.37,12,3.920,0,153,-1,8,1
139451,-0.00,-0.00,1.00,0.06,0.37,0.18,-13.00,-11.00,44.00,53.650917,9.698244,5.20,0.37,12,3.940,0,139,-1,8,1
139551,0.00,-0.00,1.00,0.00,-0.06,0.31,-16.00,-10.00,42.00,53.650917,9.698244,5.20,0.37,12,3.940,0,147,-2,8,1
139651,0.01,-0.00,1.00,0.00,-0.12,-0.18,-12.00,-11.00,38.00,53.650917,9.698244,5.20,0.37,12,3.840,0,136,-1,8,1
139751,-0.01,0.00,0.99,0.00,-0.06,-0.43,-12.00,-11.00,42.00,53.650917,9.698244,5.20,0.37,12,3.900,0,138,-2,8,1
139851,0.00,0.00,1.00,0.18,-0.12,0.24,-15.00,-11.00,39.00,53.650917,9.698244,5.20,0.37,12,3.920,0,143,-1,8,1
139951,-0.01,-0.00,1.00,0.00,0.31,0.31,-13.00,-9.00,42.00,53.650917,9.698245,5.20,0.43,12,3.940,0,145,-2,8,1
140051,0.00,0.00,1.00,0.00,0.37,0.00,-14.00,-12.00,39.00,53.650917,9.698245,5.20,0.76,12,3.940,0,139,-1,8,1
140151,0.00,0.00,1.00,0.00,-0.31,0.00,-13.00,-8.00,33.00,53.650917,9.698245,5.20,0.56,12,3.900,0,148,-1,8,1
140251,-0.01,-0.01,1.01,0.61,-1.40,-0.06,-17.00,-9.00,37.00,53.650917,9.698245,5.20,0.56,12,3.810,0,151,-1,8,1
140351,-0.00,0.00,0.99,0.18,-0.12,-0.12,-12.00,-9.00,35.00,53.650917,9.698245,5.20,0.56,12,3.930,0,143,-1,8,1
140452,-0.00,0.01,1.00,-0.06,0.31,0.06,-14.00,-9.00,43.00,53.650917,9.698245,5.20,0.56,12,3.910,0,148,-1,8,1
140552,0.00,0.00,0.99,0.31,-0.98,0.06,-15.00,-9.00,34.00,53.650917,9.698245,5.20,0.56,12,3.910,0,148,-1,8,1
140652,-0.00,-0.00,1.01,0.55,-1.53,-0.18,-14.00,-8.00,39.00,53.650917,9.698245,5.20,0.56,12,3.920,0,150,-2,8,1
140752,-0.01,-0.00,1.00,-0.12,-0.24,-0.31,-11.00,-9.00,35.00,53.650917,9.698245,5.30,0.56,12,3.940,0,141,-1,8,1
140871,0.00,0.01,1.00,0.12,0.18,-0.06,-14.00,-10.00,35.00,53.650917,9.698245,5.30,0.11,12,3.910,0,145,-1,8,1
140971,-0.02,-0.00,0.99,0.24,0.98,0.24,-15.00,-10.00,39.00,53.650917,9.698245,5.30,0.11,12,3.920,-1,147,-1,8,1
141071,-0.01,-0.01,1.00,0.00,0.43,0.37,-16.00,-9.00,42.00,53.650917,9.698244,5.40,0.11,12,3.880,0,150,-2,8,1
141171,0.01,0.01,1.00,0.06,-0.55,-0.12,-16.00,-9.00,41.00,53.650917,9.698244,5.40,0.11,12,3.820,0,150,-2,8,1
141271,-0.01,-0.01,1.01,-0.12,-0.49,-0.73,-16.00,-8.00,41.00,53.650917,9.698245,5.40,0.11,12,3.930,0,153,-1,8,1
141371,-0.01,-0.01,1.00,-0.12,-0.12,-0.24,-13.00,-8.00,36.00,53.650917,9.698245,5.40,0.11,12,3.820,0,147,-2,8,1
141472,0.00,0.01,0.98,-0.43,0.92,0.31,-19.00,-11.00,40.00,53.650917,9.698245,5.40,0.11,12,3.900,0,150,-1,8,1
141572,0.00,0.00,1.00,0.18,0.67,0.24,-14.00,-7.00,39.00,53.650917,9.698245,5.40,0.11,12,3.910,0,154,-1,8,1
141672,-0.01,-0.01,1.00,-0.12,-0.55,-0.06,-13.00,-8.00,33.00,53.650917,9.698245,5.40,0.11,12,3.940,0,147,-1,8,1
141772,-0.00,-0.00,1.00,-0.12,-1.04,-0.12,-13.00,-9.00,36.00,53.650917,9.698245,5.40,0.11,12,3.940,0,145,-1,8,1
141872,-0.01,0.01,1.01,0.24,1.28,0.06,-14.00,-9.00,42.00,53.650917,9.698245,5.40,0.11,12,3.850,0,148,-2,8,1
141972,-0.01,-0.01,1.00,0.06,0.00,0.06,-12.00,-12.00,37.00,53.650917,9.698245,5.40,0.19,12,3.920,0,135,-1,8,1
142072,0.00,-0.01,0.99,-0.12,-0.49,0.12,-16.00,-9.00,35.00,53.650917,9.698245,5.40,0.19,12,3.930,0,149,-1,8,1
142172,-0.00,0.00,1.01,-0.31,-1.04,-0.12,-15.00,-10.00,39.00,53.650917,9.698245,5.40,0.19,12,3.950,0,146,-1,8,1
142273,-0.01,-0.00,0.98,-0.12,-1.04,-0.12,-15.00,-9.00,39.00,53.650917,9.698245,5.40,0.19,12,3.930,0,149,-1,8,1
142373,-0.00,-0.00,0.97,-0.06,-0.06,0.18,-14.00,-11.00,40.00,53.650917,9.698245,5.40,0.19,12,3.910,0,141,-1,8,1
142477,0.00,-0.00,1.01,-0.12,-0.37,0.24,-13.00,-11.00,38.00,53.650917,9.698245,5.40,0.19,12,3.900,0,139,-1,8,1
142577,-0.00,0.01,1.00,0.73,1.95,-0.61,-16.00,-9.00,41.00,53.650917,9.698245,5.50,0.19,12,3.910,0,151,-1,8,1
142677,-0.00,-0.01,0.99,-0.31,0.37,-0.37,-15.00,-10.00,46.00,53.650917,9.698245,5.50,0.19,12,3.900,0,145,-1,8,1
142777,-0.01,-0.00,1.00,-0.55,1.22,0.18,-14.00,-9.00,40.00,53.650917,9.698245,5.50,0.19,12,3.750,0,148,-1,8,1
142883,0.01,0.01,0.98,0.37,-0.06,0.43,-14.00,-11.00,40.00,53.650917,9.698245,5.50,0.19,12,3.920,0,141,-1,8,1
142983,0.00,-0.01,1.00,0.06,0.00,0.00,-15.00,-11.00,38.00,53.650917,9.698245,5.50,0.19,12,3.850,0,142,-1,8,1
143083,0.00,0.01,1.01,0.06,-0.43,-0.61,-15.00,-9.00,38.00,53.650917,9.698245,5.50,0.19,12,3.910,0,149,-1,8,1
143183,-0.01,0.00,0.99,0.31,-0.12,-0.31,-15.00,-9.00,40.00,53.650917,9.698245,5.50,0.19,12,3.930,0,149,-1,8,1
143283,-0.02,-0.01,1.00,-0.12,-0.61,0.67,-14.00,-12.00,36.00,53.650917,9.698245,5.50,0.19,12,3.880,-1,140,-1,8,1
143383,0.01,0.00,1.00,-0.06,0.49,0.37,-15.00,-11.00,36.00,53.650917,9.698245,5.50,0.19,12,3.910,0,142,-1,8,1
143483,0.00,0.01,0.99,-0.49,0.92,-0.37,-16.00,-9.00,42.00,53.650917,9.698246,5.50,0.35,12,3.940,0,151,-1,8,1
143596,-0.01,-0.01,1.00,0.18,-0.55,-0.55,-15.00,-10.00,43.00,53.650917,9.698246,5.50,0.20,12,3.820,0,146,-1,8,1
143696,-0.01,0.01,1.00,-0.18,0.06,-0.12,-13.00,-9.00,39.00,53.650917,9.698246,5.50,0.20,12,3.800,0,146,-1,8,1
143796,-0.01,0.01,1.00,0.06,0.43,0.31,-19.00,-9.00,35.00,53.650917,9.698246,5.50,0.20,12,3.890,0,155,-1,8,1
143896,0.01,-0.00,1.00,-0.37,0.79,0.06,-13.00,-9.00,39.00,53.650917,9.698246,5.50,0.20,12,3.840,0,143,-1,8,1
143996,-0.00,0.00,0.99,0.00,-0.61,-0.24,-14.00,-11.00,34.00,53.650917,9.698246,5.50,0.20,12,3.900,0,142,-1,8,1
144096,-0.01,0.01,1.00,0.24,-0.18,-0.18,-20.00,-8.00,43.00,53.650917,9.698246,5.50,0.20,12,3.880,0,159,-1,8,1
144196,-0.01,-0.01,1.00,0.06,0.06,-0.12,-19.00,-10.00,38.00,53.650917,9.698246,5.50,0.20,12,3.930,0,152,-1,8,1
144297,-0.00,-0.00,1.02,-0.55,0.85,-0.12,-14.00,-9.00,40.00,53.650917,9.698246,5.50,0.20,12,3.910,0,147,-1,8,1
144397,-0.01,-0.00,0.99,-0.31,0.31,0.37,-15.00,-9.00,35.00,53.650917,9.698246,5.50,0.20,12,3.790,0,149,-2,8,1
144497,-0.01,0.01,1.00,-0.31,0.24,0.24,-15.00,-11.00,42.00,53.650917,9.698245,5.40,0.20,12,3.810,0,145,-1,8,1
144598,0.01,-0.02,0.99,0.12,-0.37,0.06,-15.00,-8.00,39.00,53.650917,9.698245,5.40,0.20,12,3.810,0,149,-1,8,1
144698,-0.01,0.02,1.01,-0.24,-1.16,-0.31,-12.00,-8.00,41.00,53.650917,9.698245,5.40,0.20,12,3.820,0,149,-1,8,1
144802,-0.01,0.01,1.00,0.18,-0.18,0.12,-16.00,-9.00,41.00,53.650917,9.698245,5.40,0.20,12,3.880,0,151,-1,8,1
144914,0.01,-0.01,0.99,-0.55,1.10,0.49,-18.00,-8.00,38.00,53.650917,9.698245,5.40,0.20,12,3.890,0,154,-1,8,1
145018,0.00,0.00,1.02,0.18,0.00,-0.12,-15.00,-8.00,40.00,53.650917,9.698245,5.40,0.20,12,3.860,0,152,-1,8,1
145118,-0.01,-0.01,1.02,0.24,0.00,-0.55,-13.00,-9.00,42.00,53.650917,9.698245,5.40,0.20,12,3.880,0,145,-1,8,1
145219,-0.02,-0.00,1.00,0.37,0.49,0.18,-12.00,-9.00,38.00,53.650917,9.698245,5.40,0.20,12,3.820,0,144,-1,8,1
145319,-0.01,-0.01,1.00,-0.12,-0.31,0.43,-16.00,-9.00,37.00,53.650917,9.698245,5.40,0.20,12,3.900,0,150,-1,8,1
145419,0.00,-0.00,0.99,0.12,-1.22,0.12,-19.00,-12.00,38.00,53.650917,9.698245,5.40,0.20,12,3.890,0,147,-1,8,1
145519,-0.00,-0.00,1.01,-0.24,-0.43,-0.31,-16.00,-9.00,38.00,53.650917,9.698245,5.40,0.20,12,3.930,0,150,-1,8,1
145619,-0.01,-0.01,1.01,-0.06,-0.37,-0.12,-12.00,-9.00,36.00,53.650917,9.698247,5.60,0.46,12,3.900,0,142,-1,8,1
145719,0.01,0.00,1.00,0.06,0.49,-0.12,-17.00,-8.00,40.00,53.650917,9.698248,5.60,0.24,12,3.930,0,155,-1,8,1
145824,-0.01,0.00,1.00,0.00,1.04,0.00,-15.00,-9.00,37.00,53.650917,9.698248,5.60,0.24,12,3.900,0,149,-1,8,1
145926,-0.00,-0.01,1.01,-0.12,0.49,0.24,-17.00,-9.00,38.00,53.650917,9.698248,5.60,0.24,12,3.820,0,151,-1,8,1
146026,-0.00,-0.00,1.02,-0.06,-0.24,-0.31,-18.00,-8.00,42.00,53.650917,9.698248,5.60,0.24,12,3.930,0,156,-1,8,1
146126,0.01,-0.00,1.01,0.00,-0.73,-0.37,-15.00,-11.00,39.00,53.650917,9.698248,5.60,0.24,12,3.910,0,143,-1,8,1
146226,-0.02,-0.01,0.99,0.00,-0.79,-0.24,-13.00,-7.00,36.00,53.650917,9.698248,5.60,0.24,12,3.880,-1,152,-1,8,1
146326,0.00,0.00,1.01,-0.43,-1.77,-0.06,-13.00,-12.00,41.00,53.650917,9.698249,5.70,0.30,12,3.930,0,137,-1,8,1
146426,-0.01,0.00,1.01,-0.67,-1.40,0.31,-13.00,-9.00,35.00,53.650917,9.698249,5.70,0.30,12,3.860,0,146,-1,8,1
146526,0.01,-0.00,1.01,0.73,1.46,-0.49,-15.00,-9.00,41.00,53.650917,9.698249,5.70,0.30,12,3.830,0,147,-1,8,1
146626,0.01,0.00,0.99,0.43,2.01,-0.06,-15.00,-9.00,36.00,53.650917,9.698249,5.70,0.30,12,3.900,0,148,-1,8,1
146726,-0.01,-0.00,1.00,-0.31,1.71,0.00,-13.00,-8.00,43.00,53.650917,9.698249,5.70,0.30,12,3.880,0,148,-1,8,1
146826,0.00,0.00,1.00,-1.22,-0.37,0.06,-14.00,-9.00,44.00,53.650917,9.698249,5.70,0.30,12,3.840,0,147,-1,8,1
146969,0.00,0.00,1.00,-0.24,0.43,0.00,-17.00,-5.00,45.00,53.650917,9.698250,5.70,0.30,12,3.910,0,163,-1,8,1
147069,-0.00,-0.00,1.00,0.49,-0.24,-0.18,-14.00,-10.00,39.00,53.650917,9.698250,5.70,0.30,12,3.940,0,144,-1,8,1
147169,-0.00,-0.01,1.00,-0.18,-0.79,0.31,-13.00,-10.00,38.00,53.650917,9.698250,5.70,0.30,12,3.900,0,141,-1,8,1
147269,-0.01,0.00,1.00,-0.43,-1.16,0.00,-13.00,-10.00,37.00,53.650917,9.698250,5.70,0.30,12,3.830,0,143,-1,8,1
147369,-0.00,0.01,0.99,0.00,-0.67,-0.24,-15.00,-8.00,37.00,53.650917,9.698250,5.70,0.44,12,3.930,0,152,-1,8,1
147469,-0.02,-0.00,1.00,0.67,2.38,-0.43,-22.00,-7.00,36.00,53.650917,9.698250,5.70,0.44,12,3.870,-1,162,-1,8,1
147569,-0.02,0.00,1.01,-0.55,1.34,-0.06,-19.00,-11.00,38.00,53.650917,9.698250,5.70,0.44,12,3.940,0,150,-1,8,1
147669,0.01,-0.01,0.98,1.28,-2.26,0.61,-15.00,-9.00,38.00,53.650917,9.698250,5.70,0.44,12,3.940,0,147,-1,8,1
147769,0.01,0.01,1.00,-0.31,0.61,0.06,-12.00,-8.00,41.00,53.650917,9.698250,5.70,0.44,12,3.910,0,145,-1,8,1
147869,-0.01,-0.00,1.00,0.73,-2.14,-0.37,-13.00,-8.00,41.00,53.650917,9.698250,5.70,0.44,12,3.930,0,148,-1,8,1
147969,-0.01,-0.01,1.02,-0.12,-0.55,-0.37,-14.00,-10.00,36.00,53.650917,9.698250,5.70,0.44,12,3.870,0,144,-1,8,1
148069,-0.02,0.01,0.99,-0.06,0.85,0.06,-13.00,-9.00,38.00,53.650917,9.698250,5.70,0.44,12,3.850,0,147,-1,8,1
148170,0.01,-0.00,1.00,-0.55,0.24,0.61,-16.00,-9.00,39.00,53.650917,9.698251,5.80,0.50,12,3.850,0,150,-1,8,1
148270,0.00,-0.01,1.00,0.31,-0.31,0.12,-12.00,-8.00,39.00,53.650917,9.698251,5.80,0.11,12,3.920,0,145,-1,8,1
148371,-0.00,0.01,1.01,0.00,-0.85,-0.31,-16.00,-9.00,44.00,53.650917,9.698251,5.80,0.11,12,3.930,0,151,-1,8,1
148471,-0.01,-0.00,0.99,0.55,-1.46,-0.12,-19.00,-9.00,40.00,53.650917,9.698251,5.80,0.11,12,3.940,0,154,-1,8,1
148571,-0.01,0.00,0.99,-0.06,-0.06,0.18,-16.00,-10.00,41.00,53.650917,9.698251,5.80,0.11,12,3.920,0,148,-1,8,1
148672,-0.01,0.00,1.02,0.06,0.12,0.12,-12.00,-9.00,43.00,53.650917,9.698251,5.80,0.11,12,3.910,0,144,-1,8,1
148772,0.01,-0.01,1.00,0.24,0.06,0.00,-13.00,-10.00,36.00,53.650917,9.698251,5.80,0.11,12,3.920,0,141,-1,8,1
148874,-0.00,0.00,1.00,-0.24,-0.06,-0.18,-18.00,-9.00,36.00,53.650917,9.698251,5.80,0.11,12,3.830,0,153,-1,8,1
148979,-0.01,0.00,0.99,0.31,-0.98,-0.43,-15.00,-11.00,43.00,53.650917,9.698251,5.80,0.11,12,3.910,0,144,-1,8,1
149079,-0.01,-0.00,0.99,-0.79,1.89,0.00,-11.00,-9.00,40.00,53.650917,9.698251,5.80,0.11,12,3.920,0,141,-1,8,1
149212,-0.01,0.01,1.01,0.31,0.00,0.18,-18.00,-10.00,43.00,53.650917,9.698251,5.80,0.11,12,3.890,0,152,-1,8,1
149313,-0.00,-0.01,1.00,0.18,-0.37,0.18,-15.00,-9.00,40.00,53.650917,9.698251,5.80,0.11,12,3.890,0,148,-1,8,1
149413,0.00,-0.01,1.01,-0.31,0.49,0.00,-15.00,-8.00,37.00,53.650917,9.698251,5.80,0.11,12,3.900,0,150,-1,8,1
149513,-0.02,0.00,1.01,-0.12,0.12,-0.37,-15.00,-7.00,40.00,53.650917,9.698251,5.80,0.11,12,3.890,-1,156,-1,8,1
149613,-0.00,-0.00,1.00,0.18,-0.49,-0.24,-12.00,-9.00,38.00,53.650917,9.698250,5.70,0.13,12,3.910,0,142,-1,8,1
149713,-0.02,-0.00,0.99,0.00,-0.49,0.18,-16.00,-8.00,42.00,53.650917,9.698250,5.70,0.13,12,3.920,0,153,-1,8,1
149813,-0.01,0.01,1.01,0.12,1.10,0.43,-18.00,-9.00,40.00,53.650917,9.698250,5.70,0.13,12,3.940,0,154,-1,8,1
149913,0.01,-0.01,1.00,-0.12,-0.43,0.06,-14.00,-9.00,40.00,53.650917,9.698249,5.70,0.22,12,3.830,0,145,-1,8,1
150013,-0.00,0.01,1.01,0.06,-0.37,-0.24,-15.00,-8.00,39.00,53.650917,9.698249,5.70,0.22,12,3.860,0,153,-1,8,1
150113,-0.02,-0.02,1.00,0.31,0.31,-0.06,-18.00,-9.00,36.00,53.650917,9.698249,5.70,0.22,12,3.871,0,152,-1,8,1
150213,0.02,-0.01,0.99,-0.73,-0.43,-0.12,-15.00,-9.00,40.00,53.650917,9.698249,5.70,0.22,12,3.900,1,147,-1,8,1
150313,-0.01,0.02,1.00,0.06,0.06,-0.24,-15.00,-8.00,43.00,53.650917,9.698249,5.70,0.22,12,3.87-1,0,155,-1,8,1
150413,-0.01,-0.00,1.01,0.31,-0.12,-0.24,-16.00,-9.00,40.00,53.650917,9.698249,5.70,0.22,12,3.900,0,151,-1,8,1
150513,0.00,-0.01,0.99,0.55,-0.06,0.49,-15.00,-8.00,42.00,53.650917,9.698249,5.70,0.22,12,3.900,0,150,-1,8,1
150613,-0.00,0.00,1.00,0.00,0.18,0.37,-12.00,-9.00,37.00,53.650917,9.698249,5.70,0.22,12,3.840,0,143,-1,8,1
150713,0.01,0.01,1.00,0.06,-0.79,-0.43,-16.00,-7.00,41.00,53.650917,9.698249,5.70,0.22,12,3.850,0,156,-1,8,1
150813,-0.01,-0.01,1.00,-0.18,-0.73,-0.12,-21.00,-9.00,40.00,53.650917,9.698249,5.70,0.22,12,3.940,0,155,-1,8,1
150913,-0.01,-0.00,1.00,0.12,0.37,-0.12,-15.00,-9.00,39.00,53.650917,9.698249,5.70,0.22,12,3.870,0,149,-1,8,1
151013,0.01,0.01,1.00,0.00,-0.06,0.12,-19.00,-8.00,33.00,53.650917,9.698249,5.70,0.22,12,3.930,0,157,-1,8,1
151113,-0.01,-0.01,0.99,0.18,0.18,-0.06,-13.00,-9.00,41.00,53.650917,9.698249,5.70,0.22,12,3.850,0,144,-1,8,1
151213,-0.01,0.01,0.99,-0.06,0.18,-0.06,-13.00,-8.00,38.00,53.650917,9.698249,5.70,0.22,12,3.930,0,149,-1,8,1
151313,-0.00,0.01,0.99,0.12,0.24,0.00,-18.00,-9.00,39.00,53.650917,9.698249,5.70,0.22,12,3.920,0,154,-1,8,1
151493,-0.00,-0.01,1.00,-0.18,0.06,0.06,-13.00,-11.00,40.00,53.650917,9.698249,5.70,0.22,12,3.930,0,138,-1,8,1
151593,-0.01,0.02,1.00,0.18,0.61,-0.06,-15.00,-10.00,34.00,53.650917,9.698249,5.70,0.22,12,3.91-1,0,148,-1,8,1
151693,-0.00,-0.01,1.00,0.24,0.12,-0.24,-15.00,-10.00,40.00,53.650917,9.698249,5.70,0.22,12,3.860,0,145,-1,8,1
151794,-0.01,-0.00,1.00,-0.12,0.12,0.18,-15.00,-9.00,44.00,53.650917,9.698249,5.70,0.22,12,3.930,0,149,-1,8,1
151894,-0.01,-0.01,0.98,-0.06,-0.24,0.73,-18.00,-7.00,35.00,53.650917,9.698249,5.70,0.22,12,3.930,0,158,-1,8,1
151994,0.01,-0.00,1.00,-0.06,0.24,-0.18,-15.00,-10.00,44.00,53.650917,9.698249,5.70,0.22,12,3.840,0,145,-1,8,1
152094,0.01,0.00,1.00,0.24,-0.37,-0.55,-12.00,-5.00,42.00,53.650917,9.698249,5.70,0.22,12,3.910,0,157,-1,8,1
152194,-0.01,-0.00,0.99,0.00,0.12,0.00,-15.00,-8.00,36.00,53.650917,9.698249,5.70,0.22,12,3.850,0,152,-1,8,1
152294,-0.01,-0.00,1.00,-0.06,-0.18,0.37,-16.00,-8.00,38.00,53.650917,9.698249,5.70,0.22,12,3.950,0,153,-1,8,1
152394,0.01,-0.00,1.01,0.12,-0.37,-0.18,-10.00,-9.00,35.00,53.650917,9.698249,5.60,0.22,12,3.880,0,136,-1,8,1
152494,-0.00,0.00,1.01,0.31,-1.10,-0.31,-16.00,-8.00,38.00,53.650917,9.698249,5.60,0.22,12,3.930,0,153,-1,8,1
152597,-0.01,0.00,1.01,0.00,-0.31,-0.55,-14.00,-8.00,38.00,53.650917,9.698249,5.60,0.22,12,3.900,0,151,-1,8,1
152697,-0.01,-0.00,1.00,0.06,-0.18,-0.12,-19.00,-10.00,39.00,53.650917,9.698249,5.60,0.22,12,3.870,0,152,-1,8,1
152797,-0.01,-0.01,1.00,0.06,0.06,0.49,-13.00,-9.00,34.00,53.650917,9.698249,5.60,0.22,12,3.890,0,145,-1,8,1
152897,0.00,0.01,1.01,-0.31,0.92,0.61,-16.00,-9.00,36.00,53.650917,9.698249,5.60,0.22,12,3.890,0,151,-1,8,1
152997,0.01,0.01,1.01,0.55,0.06,-0.12,-15.00,-8.00,36.00,53.650917,9.698249,5.60,0.22,12,3.920,0,152,-1,8,1
153098,-0.01,-0.02,0.99,-0.12,-0.55,-0.79,-16.00,-9.00,38.00,53.650917,9.698249,5.60,0.22,12,3.861,0,148,-1,8,1
153198,-0.01,0.01,0.98,0.06,-0.73,-0.43,-14.00,-7.00,37.00,53.650917,9.698249,5.60,0.22,12,3.910,0,155,-1,8,1
153298,-0.00,-0.01,1.00,0.31,0.24,0.55,-14.00,-9.00,36.00,53.650917,9.698249,5.60,0.22,12,3.940,0,146,-1,8,1
153399,0.01,-0.02,1.00,-0.12,-0.85,-0.31,-16.00,-7.00,40.00,53.650917,9.698249,5.60,0.22,12,3.870,0,154,-1,8,1
153499,-0.00,0.04,1.00,-0.55,-0.85,-0.43,-14.00,-8.00,41.00,53.650917,9.698249,5.60,0.22,12,3.83-2,0,155,-1,8,1
153599,-0.02,0.00,1.01,0.31,-0.18,-0.06,-19.00,-10.00,42.00,53.650917,9.698249,5.60,0.22,12,3.840,-1,153,-1,8,1
153699,0.00,-0.03,0.98,-0.55,1.22,0.79,-15.00,-8.00,34.00,53.650917,9.698249,5.60,0.22,12,3.931,0,149,-1,8,1
153799,0.01,0.01,1.01,-0.43,0.31,0.00,-16.00,-8.00,37.00,53.650917,9.698249,5.60,0.22,12,3.810,0,153,-1,8,1
153899,0.00,-0.01,0.99,0.43,-1.22,-0.43,-12.00,-10.00,39.00,53.650917,9.698249,5.60,0.22,12,3.930,0,138,-1,8,1
153999,-0.02,-0.00,1.02,-0.24,0.92,-0.73,-14.00,-9.00,34.00,53.650917,9.698249,5.60,0.22,12,3.890,0,148,-1,8,1
154099,0.00,0.01,1.03,1.34,1.34,-1.04,-13.00,-8.00,34.00,53.650917,9.698249,5.60,0.22,12,3.800,0,149,-1,8,1
154199,-0.00,-0.01,1.00,1.22,0.37,-0.12,-19.00,-9.00,37.00,53.650917,9.698249,5.60,0.22,12,3.850,0,154,-1,8,1
154303,-0.01,-0.01,0.99,0.12,-0.37,-0.31,-12.00,-9.00,34.00,53.650917,9.698249,5.60,0.22,12,3.890,0,142,-1,8,1
154403,-0.00,-0.00,1.01,0.61,0.24,-0.06,-12.00,-9.00,43.00,53.650917,9.698249,5.60,0.22,12,3.930,0,142,-1,8,1
154503,-0.01,0.01,1.00,0.43,1.16,0.12,-15.00,-11.00,40.00,53.650917,9.698249,5.60,0.22,12,3.930,0,145,-1,8,1
154603,0.01,-0.00,1.00,0.06,0.85,0.06,-12.00,-9.00,38.00,53.650917,9.698249,5.60,0.22,12,3.930,0,142,-1,8,1
154703,-0.00,-0.01,1.01,0.00,-0.18,-0.24,-15.00,-9.00,36.00,53.650917,9.698249,5.60,0.22,12,3.830,0,148,-1,8,1
154817,0.00,0.00,1.00,-0.12,-0.37,0.06,-12.00,-9.00,36.00,53.650917,9.698249,5.60,0.22,12,3.920,0,143,-1,8,1
154917,-0.01,-0.00,1.00,0.06,0.06,0.24,-12.00,-11.00,38.00,53.650917,9.698249,5.60,0.22,12,3.880,0,137,-1,8,1
155017,0.00,0.01,1.01,-0.06,0.24,0.00,-14.00,-8.00,35.00,53.650917,9.698249,5.60,0.22,12,3.770,0,150,-1,8,1
155120,-0.00,-0.00,1.00,-0.18,0.00,0.49,-13.00,-11.00,40.00,53.650917,9.698249,5.60,0.22,12,3.910,0,139,-1,8,1
155220,0.00,-0.00,1.00,0.00,0.18,0.55,-13.00,-9.00,36.00,53.650917,9.698249,5.60,0.22,12,3.850,0,144,-1,8,1
155320,0.01,0.00,1.00,-0.12,0.37,0.12,-14.00,-8.00,36.00,53.650917,9.698249,5.60,0.22,12,3.930,0,150,-1,8,1
155420,-0.00,-0.00,1.00,-0.06,-0.37,0.06,-12.00,-10.00,37.00,53.650917,9.698249,5.60,0.22,12,3.920,0,140,-1,8,1
155520,0.00,-0.01,1.00,0.06,0.06,0.24,-10.00,-9.00,36.00,53.650917,9.698249,5.60,0.22,12,3.890,0,136,-1,8,1
155620,-0.00,0.01,1.01,0.00,0.37,0.43,-15.00,-10.00,45.00,53.650917,9.698249,5.60,0.22,12,3.830,0,147,-1,8,1
155721,0.01,-0.00,1.00,0.00,-0.12,-0.06,-13.00,-11.00,42.00,53.650917,9.698249,5.60,0.22,12,3.870,0,138,-1,8,1
155821,-0.00,-0.01,1.00,0.18,-0.18,-0.24,-15.00,-13.00,42.00,53.650917,9.698249,5.60,0.22,12,3.870,0,138,-1,8,1
155925,-0.00,0.01,1.00,-0.18,0.06,-0.06,-13.00,-10.00,39.00,53.650917,9.698249,5.60,0.22,12,3.900,0,143,-1,8,1
156025,0.00,0.01,1.00,0.06,-0.24,-0.43,-14.00,-9.00,40.00,53.650917,9.698249,5.60,0.22,12,3.920,0,148,-1,8,1
156125,0.00,-0.01,1.00,0.24,0.00,-0.85,-15.00,-8.00,38.00,53.650917,9.698249,5.60,0.22,12,3.950,0,150,-1,8,1
156225,-0.00,-0.00,1.00,0.06,0.00,-0.55,-15.00,-9.00,36.00,53.650917,9.698249,5.60,0.22,12,3.870,0,149,-1,8,1
156325,-0.01,0.00,1.00,0.49,0.12,0.00,-10.00,-10.00,39.00,53.650917,9.698249,5.60,0.22,12,3.900,0,136,-1,8,1
156425,-0.00,-0.01,0.99,0.37,0.31,0.12,-16.00,-9.00,34.00,53.650917,9.698249,5.60,0.22,12,4.020,0,150,-1,8,1
156525,0.00,-0.00,1.00,-0.98,-0.79,-0.31,-13.00,-9.00,39.00,53.650917,9.698249,5.60,0.22,12,3.810,0,144,-1,8,1
156625,-0.02,-0.02,1.00,0.24,-0.49,0.06,-20.00,-8.00,34.00,53.650917,9.698249,5.50,0.22,12,3.881,-1,157,-1,8,1
156725,-0.00,0.01,1.00,0.00,0.98,1.22,-21.00,-7.00,42.00,53.650917,9.698249,5.50,0.06,12,3.940,0,162,-1,8,1
156826,0.01,0.01,1.00,0.12,0.85,1.46,-11.00,-9.00,45.00,53.650917,9.698249,5.50,0.09,12,3.820,0,140,-1,8,1
156926,0.03,-0.00,1.00,0.24,0.06,0.06,-20.00,-8.00,37.00,53.650917,9.698249,5.50,0.09,12,3.910,1,157,-1,8,1
157026,0.01,0.00,1.00,-0.06,-0.61,-0.85,-13.00,-9.00,39.00,53.650917,9.698249,5.50,0.09,12,3.900,0,144,-1,8,1
157128,-0.01,0.00,1.00,-0.18,-0.49,-0.79,-17.00,-9.00,40.00,53.650917,9.698249,5.50,0.09,12,3.910,0,153,-1,8,1
157228,-0.00,-0.00,1.00,-0.18,-0.06,-0.06,-13.00,-11.00,40.00,53.650917,9.698249,5.50,0.09,12,3.920,0,140,-1,8,1
157328,-0.00,-0.01,1.00,0.00,0.06,0.37,-16.00,-8.00,35.00,53.650917,9.698249,5.50,0.09,12,3.800,0,152,-1,8,1
157428,0.01,0.00,1.00,-0.06,0.06,-0.06,-14.00,-11.00,38.00,53.650917,9.698249,5.50,0.09,12,3.940,0,141,-1,8,1
157528,-0.01,0.00,0.99,0.06,-0.06,-0.12,-12.00,-9.00,39.00,53.650917,9.698249,5.50,0.09,12,3.930,0,143,-1,8,1
157628,-0.00,-0.00,1.01,-0.18,-0.12,0.00,-11.00,-10.00,37.00,53.650917,9.698249,5.50,0.09,12,3.890,0,137,-1,8,1
157728,0.00,0.00,1.01,0.00,0.06,0.12,-15.00,-9.00,34.00,53.650917,9.698249,5.50,0.09,12,3.910,0,148,-1,8,1
157828,0.00,-0.00,0.99,0.06,-0.06,-0.12,-15.00,-10.00,35.00,53.650917,9.698249,5.50,0.26,12,3.950,0,146,-1,8,1
157928,-0.00,0.00,1.00,-0.06,-0.18,-0.18,-11.00,-10.00,41.00,53.650917,9.698249,5.50,0.04,12,3.850,0,138,-1,8,1
158028,-0.00,0.01,0.98,-0.06,0.00,-0.12,-11.00,-9.00,42.00,53.650917,9.698249,5.50,0.02,12,3.940,0,142,-1,8,1
158155,0.01,-0.00,1.01,0.06,0.18,0.00,-12.00,-8.00,44.00,53.650917,9.698249,5.50,0.28,12,3.760,0,145,-1,8,1
158255,-0.00,0.00,1.00,0.00,0.06,0.18,-13.00,-10.00,39.00,53.650917,9.698249,5.50,0.28,12,3.810,0,142,-1,8,1
158355,0.00,0.00,1.00,0.12,-0.06,-0.24,-14.00,-8.00,36.00,53.650917,9.698249,5.50,0.30,12,3.880,0,150,0,8,1
158455,-0.00,-0.00,1.00,0.06,0.18,0.00,-17.00,-10.00,40.00,53.650917,9.698249,5.50,0.30,12,3.820,0,149,-1,8,1
158555,-0.00,0.00,1.00,0.00,0.00,0.06,-18.00,-9.00,39.00,53.650917,9.698249,5.50,0.30,12,3.900,0,153,-1,8,1
158655,0.01,0.00,1.00,0.06,0.12,0.49,-12.00,-11.00,40.00,53.650917,9.698249,5.50,0.30,12,3.850,0,136,-1,8,1
158755,-0.01,-0.00,1.00,0.06,-0.24,-0.24,-13.00,-11.00,39.00,53.650917,9.698249,5.50,0.30,12,3.940,0,140,-1,8,1
158855,0.01,-0.00,1.01,0.00,-0.12,-0.31,-18.00,-9.00,43.00,53.650917,9.698249,5.50,0.30,12,3.880,0,152,-1,8,1
158955,-0.01,-0.00,1.00,0.06,0.00,0.00,-15.00,-11.00,42.00,53.650917,9.698249,5.50,0.30,12,3.940,0,144,-1,8,1
159055,-0.00,0.00,1.00,0.06,-0.06,0.18,-15.00,-11.00,35.00,53.650917,9.698249,5.40,0.39,12,3.840,0,143,-1,8,1
159155,0.01,-0.00,1.00,0.06,0.18,0.12,-15.00,-9.00,40.00,53.650917,9.698249,5.40,0.39,12,3.910,0,148,-1,8,1
159255,-0.01,0.00,1.00,0.06,-0.18,-0.37,-12.00,-10.00,37.00,53.650917,9.698249,5.40,0.39,12,3.820,0,140,-1,8,1
159355,0.00,-0.00,1.00,0.18,-0.31,-0.06,-16.00,-9.00,41.00,53.650917,9.698249,5.40,0.39,12,3.930,0,150,-1,8,1
159455,-0.01,-0.00,1.00,0.06,0.18,0.18,-15.00,-11.00,40.00,53.650917,9.698249,5.40,0.39,12,3.940,0,144,-1,8,1
159555,0.00,0.00,1.00,0.12,0.12,0.12,-15.00,-8.00,33.00,53.650917,9.698249,5.40,0.39,12,3.890,0,151,-1,8,1
159655,0.00,-0.00,1.00,-0.31,-0.06,0.00,-14.00,-10.00,43.00,53.650917,9.698249,5.40,0.39,12,3.850,0,144,-1,8,1
159755,-0.00,0.00,1.00,0.18,-0.12,-0.24,-12.00,-11.00,43.00,53.650917,9.698249,5.40,0.39,12,3.920,0,138,-1,8,1
159855,0.00,-0.00,1.00,0.06,0.18,0.06,-13.00,-9.00,40.00,53.650917,9.698249,5.40,0.39,12,3.930,0,145,-1,8,1
159955,-0.00,-0.00,1.00,-0.18,0.18,0.12,-19.00,-8.00,39.00,53.650917,9.698249,5.40,0.39,12,3.920,0,157,-1,8,1
160056,-0.00,0.00,1.00,0.06,-0.31,-0.06,-12.00,-8.00,41.00,53.650917,9.698249,5.40,0.39,12,3.890,0,146,-1,8,1
160156,-0.00,-0.00,1.00,0.00,-0.06,-0.18,-14.00,-9.00,46.00,53.650917,9.698249,5.40,0.39,12,3.920,0,147,-1,8,1
160256,-0.00,-0.00,1.00,-0.12,0.00,0.00,-13.00,-9.00,41.00,53.650917,9.698249,5.40,0.39,12,3.980,0,145,-1,8,1
160357,-0.00,0.00,1.00,-0.06,0.24,0.18,-17.00,-9.00,32.00,53.650917,9.698249,5.40,0.39,12,3.840,0,152,-1,8,1
160457,-0.00,-0.00,1.00,-0.12,0.00,0.06,-17.00,-9.00,40.00,53.650917,9.698249,5.40,0.04,12,3.910,0,152,-1,8,1
160557,0.00,-0.00,1.00,0.06,0.00,-0.18,-13.00,-12.00,38.00,53.650917,9.698249,5.40,0.04,12,3.920,0,137,-1,8,1
160657,-0.00,-0.00,1.00,0.00,0.06,-0.06,-15.00,-8.00,40.00,53.650917,9.698249,5.40,0.04,12,3.940,0,151,-1,8,1
160757,-0.01,-0.00,1.00,0.00,-0.06,-0.06,-20.00,-11.00,41.00,53.650917,9.698249,5.40,0.04,12,3.910,0,151,-1,8,1
160869,0.02,0.00,1.00,0.00,-0.98,-0.18,-16.00,-11.00,39.00,53.650917,9.698249,5.40,0.04,12,3.910,1,144,-1,8,1
160969,-0.02,-0.01,1.00,0.12,0.37,-0.31,-16.00,-8.00,40.00,53.650917,9.698249,5.40,0.04,12,3.860,0,153,-1,8,1
161069,0.01,0.01,1.00,0.12,-0.49,-0.06,-15.00,-10.00,36.00,53.650917,9.698249,5.40,0.04,12,3.940,0,146,-1,8,1
161169,-0.01,-0.01,1.00,0.06,0.18,0.18,-12.00,-9.00,39.00,53.650917,9.698249,5.40,0.04,12,3.910,0,143,-1,8,1
161269,-0.00,0.01,1.00,0.00,0.24,0.12,-13.00,-8.00,40.00,53.650917,9.698249,5.40,0.04,12,3.920,0,149,-1,8,1
161369,0.00,-0.00,1.00,0.12,0.18,0.06,-13.00,-9.00,33.00,53.650917,9.698249,5.40,0.06,12,3.920,0,145,-1,8,1
161493,-0.01,-0.01,1.00,-0.06,-0.49,-0.31,-15.00,-9.00,38.00,53.650917,9.698249,5.40,0.06,12,3.900,0,148,-1,8,1
161593,0.00,0.01,1.00,-0.06,-0.12,-0.24,-15.00,-9.00,38.00,53.650917,9.698249,5.40,0.06,12,3.780,0,149,-1,8,1
161693,-0.01,0.00,1.00,0.00,0.18,0.06,-13.00,-9.00,40.00,53.650917,9.698249,5.40,0.06,12,3.850,0,146,-1,8,1
161793,0.00,-0.00,1.00,0.06,0.31,0.24,-17.00,-7.00,37.00,53.650917,9.698249,5.40,0.06,12,3.900,0,157,-1,8,1
161893,0.01,-0.00,1.00,0.00,0.06,0.00,-15.00,-12.00,41.00,53.650917,9.698249,5.40,0.06,12,3.920,0,140,-1,8,1
161993,-0.00,0.00,1.00,0.06,-0.55,-0.24,-12.00,-8.00,42.00,53.650917,9.698249,5.40,0.06,12,3.880,0,146,-1,8,1
162093,-0.00,-0.00,1.00,0.00,-0.06,-0.24,-14.00,-8.00,40.00,53.650917,9.698249,5.40,0.06,12,3.900,0,150,-1,8,1
162193,-0.01,0.00,1.00,0.00,0.31,0.12,-15.00,-12.00,41.00,53.650917,9.698249,5.40,0.06,12,3.920,0,142,-1,8,1
162293,0.00,0.00,1.00,0.00,0.24,0.24,-16.00,-9.00,42.00,53.650917,9.698249,5.40,0.06,12,3.930,0,150,-1,8,1
162393,0.00,-0.00,1.00,0.00,0.12,-0.06,-15.00,-9.00,36.00,53.650917,9.698249,5.40,0.06,12,3.920,0,148,-1,8,1
162493,-0.00,0.00,1.00,0.06,-0.18,-0.31,-16.00,-8.00,38.00,53.650917,9.698249,5.40,0.02,12,3.870,0,153,-1,8,1
162593,-0.00,0.00,1.00,0.12,-0.37,-0.06,-16.00,-10.00,36.00,53.650917,9.698249,5.40,0.02,12,3.940,0,148,-1,8,1
162693,-0.01,-0.00,1.00,0.00,0.24,0.12,-16.00,-7.00,36.00,53.650917,9.698249,5.40,0.02,12,3.890,0,156,-1,8,1
162793,0.01,-0.00,1.00,0.00,0.12,0.00,-15.00,-9.00,39.00,53.650917,9.698249,5.40,0.02,12,3.870,0,148,-1,8,1
162894,-0.00,-0.00,0.99,0.06,-0.24,-0.12,-16.00,-8.00,41.00,53.650917,9.698249,5.40,0.02,12,3.920,0,153,-1,8,1
162994,-0.01,-0.00,1.00,0.00,0.12,-0.12,-12.00,-8.00,40.00,53.650917,9.698249,5.40,0.02,12,3.920,0,146,-1,8,1
163094,0.00,-0.00,1.00,0.00,0.31,0.18,-19.00,-9.00,40.00,53.650917,9.698249,5.40,0.02,12,3.820,0,154,-1,8,1
163196,-0.01,0.02,1.00,0.00,0.06,0.06,-12.00,-9.00,40.00,53.650917,9.698249,5.40,0.02,12,4.010,0,146,-1,8,1
163296,0.01,-0.03,1.01,0.43,0.61,1.34,-12.00,-9.00,41.00,53.650917,9.698249,5.40,0.02,12,3.801,0,138,-1,8,1
163396,0.01,-0.02,1.00,-0.49,-0.06,-0.31,-15.00,-8.00,38.00,53.650917,9.698249,5.40,0.02,12,3.901,0,148,-1,8,1
163496,0.02,0.04,1.01,-0.43,-1.28,-1.40,-17.00,-9.00,38.00,53.650917,9.698249,5.50,0.02,12,3.82-2,0,155,-1,8,1
163596,-0.03,0.01,1.00,0.31,-0.43,-0.67,-14.00,-9.00,41.00,53.650917,9.698249,5.50,0.11,12,3.920,-1,150,-1,8,1
163701,-0.01,-0.03,1.00,-0.06,0.73,0.73,-14.00,-8.00,39.00,53.650917,9.698249,5.50,0.11,12,3.911,0,148,-1,8,1
163801,0.01,0.02,0.99,-0.12,0.61,0.85,-17.00,-9.00,42.00,53.650917,9.698249,5.50,0.11,12,3.920,0,153,-1,8,1
163901,0.02,0.01,1.01,0.18,-0.24,-0.31,-12.00,-9.00,40.00,53.650917,9.698249,5.50,0.11,12,3.920,0,142,-1,8,1
164001,-0.01,-0.02,0.99,0.06,-0.67,-0.85,-17.00,-8.00,41.00,53.650917,9.698249,5.50,0.11,12,3.930,0,153,-1,8,1
164101,-0.02,0.01,1.00,-0.18,-0.24,-0.24,-18.00,-9.00,40.00,53.650917,9.698249,5.50,0.11,12,3.930,0,154,-1,8,1
164202,-0.01,0.00,1.01,0.31,0.31,0.73,-20.00,-8.00,33.00,53.650917,9.698249,5.50,0.11,12,3.920,0,158,-1,8,1
164302,0.00,-0.00,0.99,0.31,-0.06,0.31,-14.00,-9.00,40.00,53.650917,9.698249,5.50,0.11,12,3.920,0,147,-1,8,1
164402,0.01,-0.00,0.99,0.06,-0.61,-0.61,-15.00,-8.00,43.00,53.650917,9.698249,5.50,0.11,12,3.920,0,150,-1,8,1
164502,-0.01,0.00,1.00,-0.24,-0.37,-0.24,-17.00,-10.00,34.00,53.650917,9.698249,5.50,0.11,12,3.920,0,150,-1,8,1
164602,-0.01,-0.00,1.00,0.06,0.31,0.43,-15.00,-9.00,36.00,53.650917,9.698249,5.50,0.26,12,3.870,0,149,-1,8,1
164702,0.01,0.01,1.01,0.06,0.31,0.31,-14.00,-8.00,33.00,53.650917,9.698249,5.50,0.26,12,3.880,0,150,-1,8,1
164817,-0.01,0.00,1.00,0.31,-0.85,-0.61,-19.00,-9.00,37.00,53.650917,9.698249,5.50,0.26,12,3.920,0,155,-1,8,1
164917,-0.01,-0.01,1.00,0.06,-0.31,-0.55,-15.00,-8.00,41.00,53.650917,9.698249,5.50,0.26,12,3.940,0,151,-1,8,1
165017,-0.02,-0.00,1.00,-0.18,0.31,0.24,-16.00,-8.00,39.00,53.650917,9.698249,5.50,0.26,12,3.920,-1,154,-1,8,1
165119,0.01,0.00,1.00,0.12,0.73,0.79,-17.00,-10.00,35.00,53.650917,9.698249,5.50,0.26,12,3.840,0,149,-1,8,1
165223,0.01,-0.00,1.00,0.06,-0.37,0.12,-14.00,-11.00,44.00,53.650917,9.698249,5.50,0.26,12,3.810,0,140,-1,8,1
165323,0.00,-0.00,1.00,0.55,0.06,-0.49,-20.00,-12.00,39.00,53.650917,9.698249,5.50,0.26,12,3.900,0,148,-1,8,1
165423,-0.01,0.00,1.00,0.37,0.43,-0.24,-15.00,-10.00,39.00,53.650917,9.698249,5.50,0.26,12,3.960,0,147,-1,8,1
165523,-0.01,0.00,1.00,0.12,0.12,0.43,-17.00,-8.00,31.00,53.650917,9.698249,5.50,0.26,12,3.910,0,155,-1,8,1
165623,0.01,-0.00,1.00,0.55,0.61,0.43,-15.00,-9.00,42.00,53.650917,9.698249,5.50,0.26,12,3.930,0,148,-2,8,1
165723,0.00,-0.00,1.00,-0.79,-0.31,-0.18,-15.00,-9.00,38.00,53.650917,9.698249,5.50,0.02,12,3.890,0,148,-1,8,1
165824,0.00,-0.01,1.00,0.43,0.00,-0.31,-16.00,-10.00,33.00,53.650917,9.698249,5.50,0.02,12,3.870,0,147,-1,8,1
165924,-0.00,-0.01,1.00,0.73,0.49,-0.18,-15.00,-8.00,37.00,53.650917,9.698249,5.50,0.02,12,3.810,0,151,-1,8,1
166024,-0.01,-0.00,1.00,-0.67,-0.67,0.12,-19.00,-8.00,37.00,53.650917,9.698249,5.50,0.02,12,3.870,0,157,-2,8,1
166124,0.00,0.01,1.00,-0.37,-0.18,0.12,-15.00,-10.00,35.00,53.650917,9.698249,5.50,0.02,12,3.920,0,147,-1,8,1
166224,0.00,-0.01,0.99,0.00,-0.06,-0.06,-15.00,-11.00,37.00,53.650917,9.698249,5.50,0.02,12,3.920,0,142,-1,8,1
166324,-0.00,-0.00,1.00,0.37,0.00,-0.24,-13.00,-12.00,35.00,53.650917,9.698249,5.50,0.02,12,3.830,0,137,-1,8,1
166424,-0.00,-0.00,1.00,-0.24,0.00,0.06,-15.00,-9.00,37.00,53.650917,9.698249,5.50,0.02,12,3.940,0,149,-1,8,1
166524,-0.00,-0.00,1.00,0.00,0.31,0.12,-15.00,-11.00,40.00,53.650917,9.698249,5.50,0.02,12,3.840,0,143,-1,8,1
166624,0.00,0.00,1.00,-0.37,-0.06,0.06,-14.00,-8.00,38.00,53.650917,9.698249,5.50,0.02,12,3.940,0,150,-1,8,1
166724,-0.00,-0.01,1.00,-0.37,-0.43,0.12,-14.00,-10.00,41.00,53.650917,9.698249,5.50,0.02,12,3.860,0,143,-1,8,1
166824,0.00,-0.00,1.00,-0.31,-0.18,0.12,-15.00,-11.00,37.00,53.650917,9.698249,5.50,0.26,12,3.910,0,143,-1,8,1
166924,0.00,0.01,1.00,0.00,-0.18,0.18,-13.00,-11.00,38.00,53.650917,9.698249,5.50,0.26,12,3.830,0,140,-1,8,1
167040,-0.00,-0.00,1.00,0.55,0.79,-0.12,-15.00,-9.00,36.00,53.650917,9.698249,5.50,0.26,12,3.910,0,148,-1,8,1
167140,-0.00,-0.01,1.00,0.61,0.49,-0.31,-14.00,-9.00,40.00,53.650917,9.698249,5.50,0.26,12,3.920,0,146,-1,8,1
167245,0.01,0.01,1.00,-0.49,-0.18,0.06,-14.00,-9.00,40.00,53.650917,9.698249,5.50,0.26,12,3.900,0,147,-1,8,1
167345,0.00,0.01,1.00,0.61,0.31,-0.24,-16.00,-10.00,37.00,53.650917,9.698249,5.50,0.26,12,3.940,0,148,-1,8,1
167445,0.00,0.00,1.00,0.12,-0.12,-0.12,-16.00,-10.00,39.00,53.650917,9.698249,5.50,0.26,12,3.860,0,147,-1,8,1
167545,0.00,0.00,1.01,0.00,-0.24,-0.18,-18.00,-9.00,37.00,53.650917,9.698249,5.50,0.26,12,3.920,0,153,-1,8,1
167645,-0.01,0.00,1.00,0.00,-0.49,-0.06,-18.00,-9.00,35.00,53.650917,9.698249,5.50,0.26,12,3.940,0,154,-1,8,1
167745,0.00,-0.01,1.00,0.43,0.37,0.06,-18.00,-8.00,35.00,53.650917,9.698249,5.50,0.26,12,3.930,0,154,-1,8,1
167845,0.00,-0.03,0.99,0.06,-0.37,-0.06,-14.00,-9.00,40.00,53.650917,9.698250,5.50,0.30,12,3.952,0,143,-1,8,1
167945,-0.00,-0.01,1.00,-1.40,-1.16,-0.43,-15.00,-8.00,35.00,53.650917,9.698250,5.50,0.09,12,3.950,0,150,-1,8,1
168045,0.00,0.02,1.00,-0.55,-0.06,-0.12,-15.00,-10.00,40.00,53.650917,9.698250,5.50,0.39,12,3.98-1,0,148,-1,8,1
168145,-0.01,0.01,1.01,-1.16,-1.04,0.37,-14.00,-7.00,37.00,53.650917,9.698250,5.50,0.39,12,3.860,0,155,-1,8,1
168245,0.00,-0.01,1.00,-0.18,-0.18,0.37,-17.00,-8.00,37.00,53.650917,9.698250,5.50,0.39,12,3.870,0,153,-1,8,1
168345,-0.00,-0.01,1.00,-0.18,0.67,0.18,-20.00,-11.00,31.00,53.650917,9.698250,5.50,0.39,12,3.910,0,150,-1,8,1
168445,-0.01,-0.00,1.00,-0.49,-0.24,0.00,-18.00,-10.00,41.00,53.650917,9.698250,5.50,0.39,12,3.920,0,151,-1,8,1
168545,-0.00,-0.00,1.00,-0.06,0.37,0.31,-17.00,-10.00,42.00,53.650917,9.698250,5.50,0.39,12,3.900,0,149,-1,8,1
168645,-0.01,0.00,1.00,0.18,0.12,0.49,-16.00,-11.00,36.00,53.650917,9.698250,5.50,0.39,12,3.930,0,146,-1,8,1
168745,0.00,0.01,1.01,0.06,-0.18,0.31,-18.00,-9.00,40.00,53.650917,9.698250,5.50,0.39,12,3.940,0,154,-1,8,1
168845,0.00,0.00,1.00,0.00,-0.31,0.12,-18.00,-10.00,44.00,53.650917,9.698250,5.40,0.19,12,3.920,0,151,-1,8,1
168945,0.01,0.01,0.99,0.55,-0.73,-0.24,-14.00,-11.00,43.00,53.650917,9.698250,5.40,0.15,12,3.920,0,142,-1,8,1
169045,-0.00,-0.01,1.00,0.24,-0.49,-0.43,-17.00,-9.00,38.00,53.650917,9.698250,5.50,0.15,12,3.950,0,151,-1,8,1
169145,-0.01,-0.04,0.99,0.49,-0.43,0.06,-15.00,-10.00,41.00,53.650917,9.698250,5.40,0.02,12,3.972,0,143,-1,8,1
169282,-0.01,0.04,1.00,-0.43,1.40,0.61,-16.00,-10.00,36.00,53.650917,9.698250,5.40,0.02,12,3.96-2,0,152,-1,8,1
169382,0.01,0.01,1.00,0.06,0.31,0.73,-16.00,-8.00,39.00,53.650917,9.698250,5.40,0.33,12,3.930,0,153,-1,8,1
169482,0.01,-0.02,0.99,0.24,-0.12,-0.49,-13.00,-10.00,40.00,53.650917,9.698250,5.40,0.07,12,3.941,0,139,-1,8,1
169582,-0.01,0.00,1.00,-0.06,-0.24,-0.79,-17.00,-11.00,40.00,53.650917,9.698250,5.40,0.07,12,3.960,0,147,-1,8,1
169683,-0.00,0.01,1.00,0.12,0.24,-0.18,-14.00,-10.00,39.00,53.650917,9.698250,5.40,0.07,12,3.920,0,145,-1,8,1
169783,0.00,-0.00,1.00,0.12,0.37,0.18,-14.00,-10.00,42.00,53.650917,9.698250,5.40,0.07,12,3.920,0,143,-1,8,1
169883,0.01,0.00,1.01,-0.55,1.28,0.06,-16.00,-10.00,36.00,53.650917,9.698250,5.40,0.07,12,3.940,0,147,-1,8,1
169983,-0.00,0.00,1.01,0.12,0.67,-0.24,-18.00,-11.00,38.00,53.650917,9.698250,5.40,0.07,12,3.900,0,148,-1,8,1
170083,-0.00,0.00,1.00,0.61,0.24,-0.31,-15.00,-11.00,36.00,53.650917,9.698250,5.40,0.07,12,3.930,0,144,-1,8,1
170187,0.00,-0.00,1.00,-0.24,0.49,0.12,-17.00,-9.00,35.00,53.650917,9.698250,5.40,0.07,12,3.950,0,151,-1,8,1
170287,0.01,-0.00,1.00,0.00,-0.31,0.12,-15.00,-11.00,33.00,53.650917,9.698250,5.40,0.07,12,3.910,0,142,-1,8,1
170388,-0.00,0.00,1.00,-0.12,0.55,-0.24,-15.00,-9.00,40.00,53.650917,9.698250,5.40,0.07,12,3.910,0,149,-1,8,1
170488,0.01,0.02,0.99,-0.12,-0.67,-1.77,-14.00,-11.00,36.00,53.650917,9.698251,5.50,0.07,12,3.910,0,142,-1,8,1
170588,0.01,0.00,0.99,0.00,-1.10,-0.55,-13.00,-9.00,40.00,53.650917,9.698251,5.50,0.50,12,3.930,0,145,-1,8,1
170688,-0.00,-0.01,1.00,0.43,-1.53,-0.79,-13.00,-9.00,45.00,53.650917,9.698251,5.50,0.50,12,3.950,0,144,-1,8,1
170788,-0.01,-0.01,1.00,-0.06,-0.73,-0.67,-16.00,-5.00,38.00,53.650917,9.698251,5.50,0.50,12,3.930,0,162,-1,8,1
170888,0.00,-0.00,1.01,-0.31,-0.24,0.37,-14.00,-8.00,38.00,53.650917,9.698251,5.50,0.50,12,3.960,0,150,-1,8,1
170988,-0.00,-0.00,1.01,-0.31,0.92,0.24,-15.00,-8.00,39.00,53.650917,9.698251,5.50,0.50,12,3.910,0,151,-1,8,1
171088,0.00,0.00,1.01,-0.79,1.22,-0.37,-16.00,-9.00,42.00,53.650917,9.698251,5.50,0.50,12,3.920,0,150,-1,8,1
171188,0.00,0.00,1.00,-0.06,-0.49,-0.06,-16.00,-8.00,36.00,53.650917,9.698251,5.50,0.50,12,3.870,0,153,-1,8,1
171288,-0.01,-0.00,1.00,-0.06,-0.24,-0.18,-15.00,-8.00,37.00,53.650917,9.698251,5.50,0.50,12,3.940,0,152,-1,8,1
171411,0.00,-0.00,0.99,-0.12,0.67,0.12,-17.00,-9.00,42.00,53.650917,9.698251,5.50,0.50,12,3.920,0,151,-1,8,1
171511,-0.01,0.00,0.99,-0.12,0.00,0.85,-11.00,-9.00,43.00,53.650917,9.698251,5.50,0.50,12,3.920,0,142,-1,8,1
171612,-0.00,0.00,1.00,0.49,-0.55,0.31,-12.00,-9.00,39.00,53.650917,9.698251,5.50,0.11,12,3.900,0,143,-1,8,1
171712,-0.00,-0.00,1.00,0.06,0.37,0.18,-16.00,-8.00,44.00,53.650917,9.698251,5.50,0.28,12,3.940,0,153,-1,8,1
171814,0.00,0.00,1.01,-0.18,0.55,0.18,-16.00,-8.00,38.00,53.650917,9.698251,5.50,0.28,12,3.960,0,153,-1,8,1
171915,0.00,0.01,1.00,-0.24,0.37,0.18,-21.00,-9.00,42.00,53.650917,9.698251,5.50,0.28,12,3.920,0,157,-1,8,1
172015,0.00,-0.00,1.00,-0.18,0.00,-0.24,-16.00,-9.00,36.00,53.650917,9.698251,5.50,0.28,12,3.910,0,150,-1,8,1
172115,-0.00,-0.00,1.00,0.12,-0.79,-0.79,-15.00,-7.00,40.00,53.650917,9.698251,5.50,0.28,12,3.920,0,154,-1,8,1
172215,-0.01,0.00,1.00,0.12,-0.37,-0.43,-13.00,-11.00,36.00,53.650917,9.698251,5.50,0.28,12,3.940,0,140,-1,8,1
172315,-0.01,0.00,1.00,0.37,-0.43,0.06,-13.00,-9.00,36.00,53.650917,9.698251,5.50,0.28,12,3.910,0,146,-1,8,1
172415,0.00,0.00,1.00,0.18,-0.61,-0.18,-19.00,-8.00,42.00,53.650917,9.698251,5.50,0.28,12,3.950,0,157,-1,8,1
172515,-0.01,-0.01,1.00,0.00,-0.18,0.00,-13.00,-9.00,40.00,53.650917,9.698251,5.50,0.28,12,3.820,0,144,-1,8,1
172615,-0.00,0.00,1.00,-0.49,1.46,0.12,-20.00,-9.00,42.00,53.650917,9.698251,5.50,0.17,12,3.960,0,156,-1,8,1
172715,-0.00,0.01,1.00,-0.12,0.24,0.12,-13.00,-10.00,41.00,53.650917,9.698251,5.50,0.17,12,3.960,0,143,-1,8,1
172815,0.00,-0.01,1.00,0.18,0.00,-0.06,-12.00,-8.00,41.00,53.650917,9.698251,5.50,0.17,12,3.970,0,145,-1,8,1
172915,-0.01,0.00,1.00,0.06,-0.06,-0.06,-15.00,-9.00,38.00,53.650917,9.698251,5.50,0.17,12,3.900,0,149,-1,8,1
173015,-0.00,0.00,1.00,0.24,-0.85,0.18,-20.00,-7.00,40.00,53.650917,9.698251,5.50,0.17,12,3.920,0,160,-1,8,1
173116,0.00,0.00,1.00,0.24,-0.49,0.18,-16.00,-11.00,38.00,53.650917,9.698251,5.50,0.17,12,3.930,0,145,-1,8,1
173216,-0.01,0.00,1.00,0.00,-0.43,0.00,-16.00,-9.00,40.00,53.650917,9.698251,5.50,0.17,12,3.920,0,151,-1,8,1
173335,0.00,0.00,1.00,0.06,0.61,-0.24,-14.00,-9.00,43.00,53.650917,9.698251,5.50,0.17,12,3.930,0,147,-1,8,1
173436,0.00,-0.00,1.00,-0.18,0.61,-0.18,-16.00,-9.00,40.00,53.650917,9.698251,5.50,0.17,12,3.920,0,150,-1,8,1
173536,-0.00,0.00,1.01,-1.10,0.67,0.49,-16.00,-10.00,37.00,53.650917,9.698251,5.50,0.17,12,3.940,0,148,-1,8,1
173636,-0.01,-0.00,1.00,-0.12,0.18,0.12,-13.00,-12.00,31.00,53.650917,9.698251,5.50,0.17,12,3.860,0,137,-1,8,1
173736,0.01,0.01,1.00,-0.37,1.22,0.12,-12.00,-9.00,38.00,53.650917,9.698251,5.60,0.17,12,3.860,0,144,-1,8,1
173836,-0.00,-0.00,1.00,0.12,-0.24,0.00,-13.00,-8.00,34.00,53.650917,9.698251,5.60,0.17,12,3.880,0,148,-1,8,1
173936,-0.00,-0.00,1.00,-0.18,-0.12,-0.24,-19.00,-8.00,41.00,53.650917,9.698251,5.60,0.17,12,3.950,0,156,-1,8,1
174036,-0.01,-0.00,1.00,0.43,-0.79,0.00,-13.00,-7.00,34.00,53.650917,9.698251,5.60,0.30,12,3.900,0,152,-1,8,1
174136,0.00,0.01,1.01,-0.18,0.43,0.92,-16.00,-9.00,41.00,53.650917,9.698251,5.60,0.15,12,3.930,0,151,-1,8,1
174236,-0.01,0.00,0.98,0.12,0.37,-0.61,-15.00,-8.00,37.00,53.650917,9.698251,5.70,0.07,12,3.840,0,152,-1,8,1
174336,-0.00,0.00,1.00,0.43,-0.31,-0.37,-14.00,-8.00,42.00,53.650917,9.698251,5.70,0.07,12,3.870,0,150,-1,8,1
174437,-0.00,0.01,1.00,-0.67,0.55,-0.06,-14.00,-11.00,35.00,53.650917,9.698251,5.70,0.17,12,3.920,0,142,-1,8,1
174537,0.00,0.00,0.99,-0.31,0.98,0.18,-13.00,-10.00,38.00,53.650917,9.698251,5.70,0.11,12,3.860,0,142,-1,8,1
174639,-0.02,0.05,1.00,0.24,0.98,0.06,-15.00,-9.00,31.00,53.650917,9.698251,5.70,0.11,12,3.90-2,-1,154,-1,8,1
174766,0.03,-0.05,0.98,0.37,-0.06,1.22,-13.00,-9.00,40.00,53.650917,9.698251,5.70,0.11,12,3.922,1,137,-1,8,1
174866,0.02,-0.01,0.99,-0.73,-1.77,-1.10,-19.00,-9.00,39.00,53.650917,9.698251,5.70,0.11,12,3.920,0,152,-1,8,1
174966,-0.03,0.05,1.02,0.67,0.24,-0.49,-13.00,-10.00,40.00,53.650917,9.698251,5.70,0.11,12,3.92-2,-1,150,-1,8,1
175067,0.01,-0.03,1.00,-0.61,0.73,0.61,-13.00,-9.00,34.00,53.650917,9.698251,5.70,0.11,12,3.951,0,141,-1,8,1
175167,0.01,0.00,1.00,-0.37,-1.22,0.00,-16.00,-8.00,38.00,53.650917,9.698251,5.70,0.11,12,3.750,0,153,-1,8,1
175267,-0.01,0.03,1.00,-0.37,0.31,-0.37,-14.00,-8.00,40.00,53.650917,9.698252,5.70,0.11,12,3.94-1,0,154,-1,8,1
175370,-0.00,-0.00,0.99,0.18,0.85,-0.18,-14.00,-7.00,42.00,53.650917,9.698252,5.70,0.43,12,3.890,0,153,-1,8,1
175470,0.01,-0.01,1.01,0.18,-2.20,0.18,-15.00,-8.00,40.00,53.650917,9.698252,5.70,0.43,12,3.930,0,149,-1,8,1
175570,-0.01,0.01,1.01,-0.18,-0.37,0.12,-16.00,-9.00,40.00,53.650917,9.698252,5.70,0.43,12,3.920,0,151,-1,8,1
175670,-0.01,-0.00,1.01,1.10,0.92,-0.18,-15.00,-8.00,39.00,53.650917,9.698252,5.70,0.43,12,3.900,0,152,-1,8,1
175770,0.00,-0.02,1.02,0.67,-0.73,0.06,-17.00,-10.00,38.00,53.650917,9.698252,5.70,0.43,12,3.961,0,147,-1,8,1
175870,-0.01,0.02,1.01,-0.61,0.49,0.37,-19.00,-8.00,38.00,53.650917,9.698252,5.70,0.43,12,3.94-1,0,159,-1,8,1
175970,-0.00,0.00,1.00,0.55,0.73,-0.06,-12.00,-7.00,41.00,53.650917,9.698252,5.70,0.43,12,3.960,0,150,-1,8,1
176070,0.01,-0.01,1.00,0.06,0.55,-0.06,-13.00,-8.00,41.00,53.650917,9.698252,5.70,0.43,12,3.810,0,146,-1,8,1
176170,0.00,0.00,1.01,0.18,-0.92,0.12,-15.00,-9.00,37.00,53.650917,9.698252,5.70,0.43,12,3.930,0,149,-1,8,1
176270,0.00,0.01,1.00,0.43,-0.55,-0.55,-17.00,-7.00,38.00,53.650917,9.698252,5.70,0.43,12,3.900,0,158,-1,8,1
176370,-0.00,0.00,1.00,-0.06,-0.92,-0.06,-13.00,-9.00,38.00,53.650917,9.698251,5.60,0.22,12,3.850,0,145,-1,8,1
176470,-0.00,-0.00,1.00,-0.24,-0.43,0.55,-12.00,-8.00,44.00,53.650917,9.698251,5.60,0.22,12,3.950,0,145,-1,8,1
176570,0.01,0.02,1.00,-0.18,0.37,0.00,-17.00,-8.00,38.00,53.650917,9.698251,5.60,0.22,12,3.91-1,0,156,-1,8,1
176670,0.01,-0.00,0.99,-0.06,0.85,-0.37,-14.00,-11.00,39.00,53.650917,9.698251,5.60,0.22,12,3.960,0,140,-1,8,1
176770,-0.01,-0.00,1.00,-0.12,0.24,-0.18,-15.00,-9.00,36.00,53.650917,9.698251,5.60,0.22,12,3.920,0,149,-1,8,1
176870,0.01,0.01,1.00,0.00,-0.12,0.31,-13.00,-9.00,41.00,53.650917,9.698251,5.60,0.22,12,3.760,0,145,-1,8,1
176981,-0.01,-0.01,1.01,0.92,-2.62,-0.12,-13.00,-11.00,45.00,53.650917,9.698251,5.60,0.22,12,3.960,0,139,-1,8,1
177081,0.00,0.03,0.99,-0.98,1.40,-0.24,-16.00,-8.00,41.00,53.650917,9.698251,5.60,0.22,12,3.93-1,0,156,-1,8,1
177181,-0.00,-0.01,0.99,-0.06,0.98,0.24,-12.00,-8.00,42.00,53.650917,9.698251,5.60,0.22,12,3.920,0,145,-1,8,1
177281,0.01,0.00,0.99,-0.18,-0.49,0.00,-14.00,-8.00,36.00,53.650917,9.698251,5.60,0.22,12,3.960,0,149,-1,8,1
177381,-0.00,0.00,1.01,0.31,-0.85,-0.24,-13.00,-9.00,35.00,53.650917,9.698252,5.60,0.22,12,3.970,0,145,-2,8,1
177481,-0.00,0.01,1.01,-0.55,1.10,-0.31,-16.00,-8.00,36.00,53.650917,9.698252,5.60,0.22,12,3.960,0,154,-2,8,1
177582,-0.02,-0.02,1.00,0.55,-0.49,0.12,-15.00,-9.00,37.00,53.650917,9.698252,5.60,0.22,12,3.970,0,148,-2,8,1
177682,0.01,0.01,1.00,-0.12,-0.49,0.31,-16.00,-9.00,38.00,53.650917,9.698252,5.60,0.22,12,3.770,0,151,-2,8,1
177784,-0.00,0.01,1.00,0.12,-0.49,-0.24,-15.00,-8.00,34.00,53.650917,9.698252,5.60,0.22,12,3.910,0,153,-1,8,1
177884,-0.01,-0.00,1.04,-1.53,2.56,-0.43,-16.00,-6.00,42.00,53.650917,9.698252,5.60,0.22,12,3.920,0,159,-1,8,1
177984,-0.00,-0.01,1.01,-1.71,1.71,-0.06,-11.00,-8.00,38.00,53.650917,9.698252,5.60,0.22,12,3.840,0,143,-1,8,1
178087,-0.01,0.02,1.01,0.73,-0.24,0.06,-17.00,-8.00,38.00,53.650917,9.698252,5.60,0.22,12,3.960,0,157,-1,8,1
178187,-0.00,-0.01,1.00,0.37,0.49,0.18,-11.00,-11.00,35.00,53.650917,9.698252,5.60,0.22,12,3.930,0,134,-1,8,1
178289,0.01,-0.00,1.01,-0.18,0.37,0.00,-12.00,-5.00,40.00,53.650917,9.698252,5.60,0.22,12,3.960,0,156,-1,8,1
178389,-0.00,0.01,1.02,0.79,-0.24,0.24,-16.00,-9.00,42.00,53.650917,9.698252,5.60,0.22,12,3.980,0,151,-1,8,1
178489,0.02,-0.01,0.98,1.16,-2.08,-0.43,-13.00,-9.00,40.00,53.650917,9.698252,5.60,0.17,12,3.960,1,141,-1,8,1
178589,-0.02,0.01,1.00,-0.18,-1.22,-1.65,-17.00,-8.00,44.00,53.650917,9.698252,5.60,0.17,12,3.960,-1,157,-1,8,1
178689,0.01,0.02,1.01,0.06,1.04,0.31,-13.00,-9.00,37.00,53.650917,9.698252,5.60,0.17,12,3.91-1,0,146,-1,8,1
178789,-0.01,-0.02,1.01,0.43,0.00,0.31,-15.00,-8.00,39.00,53.650917,9.698252,5.60,0.17,12,3.960,0,150,-1,8,1
178889,0.02,0.01,1.00,-0.24,-0.61,-0.24,-17.00,-9.00,44.00,53.650917,9.698252,5.60,0.17,12,3.950,1,151,-1,8,1
178989,-0.01,0.01,1.01,0.24,-1.04,-0.31,-16.00,-9.00,41.00,53.650917,9.698252,5.60,0.17,12,3.920,0,151,-1,8,1
179089,-0.00,-0.01,1.00,-0.18,0.31,-0.24,-13.00,-8.00,39.00,53.650917,9.698252,5.60,0.17,12,3.920,0,147,-1,8,1
179189,-0.01,-0.01,1.01,0.37,-0.49,0.00,-13.00,-7.00,42.00,53.650917,9.698252,5.60,0.17,12,3.870,0,150,-1,8,1
179289,-0.01,0.02,1.01,0.18,-0.18,0.49,-12.00,-8.00,39.00,53.650917,9.698252,5.60,0.17,12,3.93-1,0,149,-1,8,1
179389,-0.00,0.02,1.01,-2.81,0.98,1.16,-14.00,-8.00,38.00,53.650917,9.698252,5.60,0.17,12,3.93-1,0,152,-1,8,1
179489,-0.00,-0.03,1.00,-0.18,0.12,-0.43,-16.00,-8.00,40.00,53.650917,9.698252,5.60,0.17,12,3.951,0,150,-1,8,1
179589,-0.02,0.00,1.01,-0.06,0.31,-0.24,-16.00,-6.00,38.00,53.650917,9.698252,5.60,0.17,12,3.930,-1,160,-2,8,1
179689,0.00,0.01,1.00,0.73,-0.98,0.55,-15.00,-8.00,41.00,53.650917,9.698252,5.60,0.17,12,3.980,0,153,-1,8,1
179789,0.00,-0.00,0.99,-0.12,1.10,0.49,-14.00,-9.00,38.00,53.650917,9.698252,5.60,0.30,12,3.940,0,147,-1,8,1
179889,0.01,-0.00,1.00,-0.24,0.31,0.06,-14.00,-9.00,38.00,53.650917,9.698252,5.60,0.30,12,3.920,0,145,-1,8,1
179989,-0.00,0.00,1.00,0.24,-1.10,-0.49,-13.00,-10.00,39.00,53.650917,9.698252,5.60,0.30,12,3.930,0,142,-1,8,1
180089,-0.00,0.01,1.00,0.31,-1.04,-0.43,-13.00,-10.00,39.00,53.650917,9.698252,5.60,0.30,12,3.840,0,143,-1,8,1
180189,-0.01,-0.00,1.00,-0.49,1.04,0.18,-13.00,-8.00,34.00,53.650917,9.698252,5.60,0.30,12,3.930,0,148,-1,8,1
180295,0.00,0.01,1.00,0.31,-0.31,0.37,-14.00,-6.00,34.00,53.650917,9.698252,5.60,0.30,12,3.920,0,158,-1,8,1
180395,-0.00,0.00,1.00,-0.24,-0.61,-2.08,-13.00,-8.00,41.00,53.650917,9.698252,5.60,0.30,12,3.890,0,149,-1,8,1
180495,-0.01,-0.01,1.01,0.24,0.67,-0.55,-13.00,-8.00,38.00,53.650917,9.698252,5.60,0.30,12,3.910,0,148,-1,8,1
180595,-0.01,0.01,0.99,0.00,0.67,-0.24,-12.00,-10.00,35.00,53.650917,9.698253,5.60,0.44,12,3.810,0,142,-1,8,1
180695,0.01,0.01,1.00,-0.43,2.01,-0.24,-18.00,-8.00,40.00,53.650917,9.698253,5.60,0.44,12,3.820,0,156,-1,8,1
180795,-0.01,-0.01,0.99,0.24,-0.18,-0.12,-11.00,-7.00,38.00,53.650917,9.698253,5.60,0.44,12,3.930,0,146,-1,8,1
180897,0.01,-0.01,1.01,-0.12,1.04,-0.18,-18.00,-9.00,34.00,53.650917,9.698253,5.60,0.44,12,3.840,0,152,-1,8,1
180997,-0.00,0.00,0.99,0.12,-0.85,-0.12,-11.00,-9.00,34.00,53.650917,9.698253,5.60,0.44,12,3.920,0,141,-1,8,1
181101,0.01,0.01,1.00,-0.49,-0.24,0.00,-14.00,-7.00,33.00,53.650917,9.698253,5.60,0.44,12,3.910,0,153,-1,8,1
181201,-0.03,-0.01,1.00,0.43,-1.53,0.43,-16.00,-9.00,34.00,53.650917,9.698253,5.60,0.44,12,3.910,-1,150,-1,8,1
181301,0.01,-0.03,0.99,0.18,-0.12,0.31,-19.00,-9.00,42.00,53.650917,9.698253,5.60,0.44,12,3.851,0,151,-1,8,1
181526,-0.00,0.03,0.99,-0.12,0.31,-0.61,-12.00,-9.00,40.00,53.650917,9.698253,5.60,0.44,12,3.73-1,0,147,-1,8,1
181626,-0.01,0.01,1.01,0.61,0.18,-0.06,-14.00,-9.00,34.00,53.650917,9.698253,5.60,0.44,12,3.930,0,148,-1,8,1
181726,-0.00,-0.02,0.99,0.24,0.00,0.79,-12.00,-9.00,39.00,53.650917,9.698252,5.60,0.22,12,3.861,0,140,-1,8,1
181826,0.01,0.00,1.00,-0.12,-1.40,-0.18,-13.00,-8.00,36.00,53.650917,9.698252,5.60,0.22,12,3.900,0,147,-1,8,1
181926,-0.01,0.01,1.00,0.98,-1.46,-0.73,-12.00,-9.00,40.00,53.650917,9.698252,5.60,0.43,12,3.900,0,145,-1,8,1
182026,-0.02,-0.02,1.01,0.37,-0.43,-1.16,-11.00,-8.00,37.00,53.650917,9.698252,5.60,0.43,12,3.931,-1,143,-1,8,1
182126,-0.01,-0.00,1.01,-0.12,0.24,0.79,-14.00,-9.00,39.00,53.650917,9.698252,5.60,0.43,12,3.910,0,147,-1,8,1
182226,0.00,0.01,1.00,-0.24,-0.49,0.55,-13.00,-7.00,34.00,53.650917,9.698252,5.60,0.43,12,3.930,0,152,-1,8,1
182326,0.01,0.02,0.99,-0.61,0.67,-0.79,-17.00,-8.00,42.00,53.650917,9.698252,5.60,0.43,12,3.94-1,0,156,-1,8,1
182426,-0.00,-0.02,0.99,0.18,-0.18,-0.98,-14.00,-7.00,37.00,53.650917,9.698252,5.60,0.43,12,3.920,0,151,-1,8,1
182526,-0.02,-0.00,1.00,0.24,-0.61,0.00,-14.00,-9.00,38.00,53.650917,9.698252,5.60,0.43,12,3.910,0,147,-1,8,1
182626,0.00,0.02,1.00,-0.31,0.67,0.85,-14.00,-8.00,39.00,53.650917,9.698252,5.60,0.43,12,3.92-1,0,152,-1,8,1
182726,-0.00,-0.01,1.02,0.67,-1.04,0.18,-18.00,-7.00,36.00,53.650917,9.698252,5.60,0.43,12,3.930,0,157,-1,8,1
182827,0.01,-0.03,1.01,0.06,0.31,-0.31,-14.00,-8.00,36.00,53.650917,9.698252,5.60,0.09,12,3.931,0,146,-1,8,1
182927,-0.02,0.02,1.00,-0.24,-0.24,-0.43,-13.00,-7.00,41.00,53.650917,9.698252,5.60,0.09,12,3.880,0,155,-1,8,1
183027,0.00,0.03,1.00,0.06,0.06,0.00,-16.00,-8.00,32.00,53.650917,9.698252,5.60,0.22,12,3.99-1,0,155,-1,8,1
183127,-0.01,-0.01,1.00,0.43,0.12,0.00,-13.00,-9.00,41.00,53.650917,9.698252,5.60,0.22,12,3.870,0,144,-1,8,1
183227,-0.00,-0.01,0.99,0.73,-0.98,-0.37,-11.00,-6.00,34.00,53.650917,9.698252,5.60,0.22,12,3.940,0,150,-1,8,1
183327,-0.01,0.01,0.99,-0.73,0.06,0.85,-12.00,-9.00,35.00,53.650917,9.698252,5.60,0.22,12,3.920,0,145,-1,8,1
183427,-0.01,0.02,1.00,0.18,0.24,-0.24,-15.00,-9.00,42.00,53.650917,9.698252,5.60,0.22,12,3.920,0,151,-1,8,1
183527,-0.01,-0.02,1.01,0.00,1.53,-0.24,-18.00,-10.00,40.00,53.650917,9.698252,5.60,0.22,12,3.951,0,149,-1,8,1
183643,0.00,0.00,1.00,-0.31,0.18,0.06,-13.00,-9.00,40.00,53.650917,9.698252,5.60,0.22,12,3.960,0,145,-1,8,1
183743,-0.00,0.00,1.00,0.18,-0.31,0.18,-14.00,-9.00,39.00,53.650917,9.698252,5.60,0.22,12,3.930,0,147,-1,8,1
183843,-0.01,0.00,1.01,0.67,-1.46,-0.18,-18.00,-8.00,39.00,53.650917,9.698252,5.60,0.15,12,3.960,0,156,-1,8,1
183944,-0.00,0.00,1.02,0.00,0.12,0.06,-14.00,-8.00,38.00,53.650917,9.698252,5.60,0.13,12,3.960,0,150,-1,8,1
184044,-0.01,-0.00,1.01,-0.18,-0.73,0.37,-15.00,-6.00,38.00,53.650917,9.698252,5.60,0.13,12,3.990,0,158,-1,8,1
184144,-0.01,-0.00,1.02,0.24,-0.18,0.00,-13.00,-9.00,31.00,53.650917,9.698252,5.60,0.06,12,3.900,0,145,-1,8,1
184244,-0.01,-0.01,1.00,-0.12,-0.12,0.12,-14.00,-9.00,36.00,53.650917,9.698252,5.60,0.04,12,3.940,0,147,-1,8,1
184344,0.00,0.01,1.02,-0.43,0.61,0.12,-15.00,-7.00,37.00,53.650917,9.698252,5.60,0.04,12,3.920,0,156,-1,8,1
184444,-0.01,-0.02,1.00,-0.49,1.28,-0.43,-16.00,-7.00,42.00,53.650917,9.698252,5.60,0.04,12,3.930,0,154,-1,8,1
184544,-0.01,-0.01,1.00,-0.12,-0.31,-0.49,-13.00,-8.00,34.00,53.650917,9.698252,5.60,0.04,12,3.940,0,148,-1,8,1
184644,-0.01,0.02,1.01,0.18,-0.37,0.24,-15.00,-8.00,37.00,53.650917,9.698252,5.60,0.04,12,3.91-1,0,154,-1,8,1
184744,-0.00,-0.00,1.00,0.00,0.24,0.49,-17.00,-9.00,37.00,53.650917,9.698252,5.60,0.04,12,3.940,0,151,-1,8,1
184844,0.00,0.00,1.01,-0.18,0.85,0.12,-12.00,-8.00,42.00,53.650917,9.698252,5.60,0.04,12,3.960,0,146,-1,8,1
184945,-0.00,-0.00,1.02,-0.06,0.98,-0.43,-15.00,-9.00,40.00,53.650917,9.698252,5.60,0.04,12,3.940,0,148,-1,8,1
185045,0.00,0.00,1.00,0.37,-2.20,-1.59,-15.00,-8.00,36.00,53.650917,9.698252,5.70,0.04,12,3.920,0,152,-1,8,1
185145,-0.02,0.02,0.98,-0.61,1.95,0.31,-13.00,-9.00,37.00,53.650917,9.698252,5.70,0.04,12,3.920,-1,148,-1,8,1
185245,-0.00,-0.00,1.00,0.18,1.04,0.55,-14.00,-8.00,39.00,53.650917,9.698253,5.70,0.31,12,3.940,0,150,-1,8,1
185345,0.01,-0.01,1.00,-0.06,-0.37,0.43,-12.00,-7.00,40.00,53.650917,9.698253,5.70,0.15,12,3.930,0,148,-1,8,1
185452,-0.00,0.01,1.00,-0.55,0.61,-0.61,-13.00,-10.00,37.00,53.650917,9.698253,5.70,0.15,12,3.910,0,143,-1,8,1
185552,-0.00,0.00,1.01,-0.43,1.04,-0.61,-16.00,-8.00,40.00,53.650917,9.698253,5.70,0.15,12,3.910,0,153,-1,8,1
185652,-0.00,-0.00,0.99,-0.24,-0.12,0.12,-17.00,-6.00,41.00,53.650917,9.698253,5.70,0.15,12,3.960,0,160,-1,8,1
185752,-0.00,0.01,1.00,0.00,-0.18,0.06,-17.00,-10.00,39.00,53.650917,9.698253,5.70,0.15,12,3.960,0,150,-1,8,1
185852,-0.01,0.01,0.99,0.31,-0.49,-0.31,-11.00,-7.00,42.00,53.650917,9.698253,5.70,0.15,12,3.940,0,150,-1,8,1
185952,0.00,-0.01,1.00,0.85,-1.34,-0.18,-14.00,-8.00,36.00,53.650917,9.698253,5.70,0.15,12,3.950,0,149,-1,8,1
186052,-0.01,-0.00,1.00,0.67,0.24,-0.79,-19.00,-8.00,37.00,53.650917,9.698253,5.70,0.15,12,3.970,0,157,-1,8,1
186152,-0.01,0.01,1.02,-0.67,-0.12,-0.06,-14.00,-10.00,33.00,53.650917,9.698253,5.70,0.15,12,3.930,0,145,-1,8,1
186252,-0.00,0.01,1.00,-0.37,0.49,0.12,-13.00,-9.00,42.00,53.650917,9.698253,5.70,0.30,12,3.960,0,146,-1,8,1
186352,-0.00,-0.01,1.00,-0.06,-0.12,0.24,-15.00,-9.00,40.00,53.650917,9.698253,5.70,0.30,12,3.940,0,147,-1,8,1
186452,-0.00,-0.00,1.00,0.06,-0.55,-0.06,-13.00,-9.00,41.00,53.650917,9.698253,5.70,0.30,12,3.910,0,145,-1,8,1
186552,-0.01,0.02,1.01,-0.24,0.18,-0.12,-15.00,-7.00,39.00,53.650917,9.698253,5.70,0.30,12,3.970,0,157,-1,8,1
186652,-0.01,-0.01,1.00,0.73,-0.55,0.31,-14.00,-10.00,35.00,53.650917,9.698253,5.70,0.30,12,3.950,0,144,-1,8,1
186752,-0.00,-0.00,1.00,-0.06,0.12,0.24,-15.00,-9.00,44.00,53.650917,9.698253,5.70,0.30,12,3.960,0,149,-1,8,1
186852,-0.01,0.01,1.00,-0.12,-0.18,0.12,-14.00,-6.00,43.00,53.650917,9.698254,5.70,0.30,12,3.930,0,158,-1,8,1
186956,0.01,0.01,1.00,0.43,0.12,0.12,-15.00,-9.00,39.00,53.650917,9.698254,5.70,0.30,12,3.920,0,149,-1,8,1
187057,-0.00,-0.00,1.01,-0.18,1.83,0.06,-17.00,-7.00,39.00,53.650917,9.698254,5.70,0.07,12,3.950,0,157,-1,8,1
187157,-0.01,-0.01,1.01,-0.18,0.73,0.31,-18.00,-11.00,41.00,53.650917,9.698254,5.70,0.06,12,3.960,0,147,-1,8,1
187257,-0.00,-0.00,1.01,0.06,-1.04,0.61,-17.00,-9.00,40.00,53.650917,9.698254,5.70,0.19,12,3.900,0,152,-1,8,1
187357,0.01,0.01,1.00,0.24,0.06,0.37,-16.00,-9.00,42.00,53.650917,9.698254,5.70,0.19,12,3.930,0,151,-1,8,1
187457,-0.00,-0.00,1.00,0.00,0.79,-0.12,-19.00,-10.00,36.00,53.650917,9.698254,5.70,0.19,12,3.930,0,152,-1,8,1
187557,-0.00,-0.01,1.00,-0.06,-0.24,0.12,-19.00,-8.00,41.00,53.650917,9.698254,5.70,0.19,12,3.970,0,156,-1,8,1
187657,-0.00,0.01,1.00,0.06,0.00,0.24,-12.00,-9.00,40.00,53.650917,9.698254,5.70,0.19,12,3.940,0,144,-1,8,1
187757,0.01,0.00,0.99,-0.12,1.22,0.06,-17.00,-8.00,39.00,53.650917,9.698254,5.60,0.19,12,3.950,0,154,-1,8,1
187857,0.00,-0.00,1.00,0.31,-0.92,0.12,-15.00,-8.00,36.00,53.650917,9.698254,5.60,0.17,12,3.950,0,151,-1,8,1
187957,0.00,-0.00,1.01,0.98,-2.14,-0.06,-17.00,-9.00,40.00,53.650917,9.698254,5.60,0.43,12,3.810,0,151,-1,8,1
188057,-0.00,-0.00,1.01,-0.43,1.46,-0.12,-15.00,-6.00,34.00,53.650917,9.698254,5.60,0.19,12,3.990,0,158,-1,8,1
188157,0.00,0.01,1.00,-0.98,1.10,0.24,-15.00,-8.00,38.00,53.650917,9.698254,5.60,0.19,12,3.880,0,152,-1,8,1
188257,0.01,-0.00,1.01,0.24,-1.16,-0.37,-15.00,-7.00,38.00,53.650917,9.698254,5.60,0.28,12,3.840,0,153,-1,8,1
188357,-0.01,-0.00,1.00,0.49,-0.12,-0.24,-12.00,-9.00,36.00,53.650917,9.698254,5.60,0.28,12,3.920,0,143,-1,8,1
188457,0.01,0.01,1.00,0.24,0.12,0.43,-22.00,-10.00,37.00,53.650917,9.698254,5.60,0.28,12,3.920,0,155,-1,8,1
188557,0.01,0.01,1.00,-0.18,-0.61,-0.18,-14.00,-8.00,39.00,53.650917,9.698254,5.60,0.28,12,3.810,0,151,-1,8,1
188657,0.00,0.00,1.00,0.00,-0.31,-0.85,-18.00,-9.00,36.00,53.650917,9.698254,5.60,0.28,12,3.930,0,153,-1,8,1
188758,-0.01,-0.00,0.98,-0.18,-3.48,-1.10,-15.00,-11.00,37.00,53.650917,9.698254,5.60,0.28,12,3.910,0,144,-1,8,1
188858,-0.01,-0.00,1.00,-0.98,1.16,-0.98,-17.00,-9.00,38.00,53.650917,9.698255,5.60,0.43,12,3.830,0,152,-1,8,1
188958,-0.01,0.01,1.00,0.24,0.24,0.00,-16.00,-9.00,38.00,53.650917,9.698254,5.60,0.31,12,3.920,0,152,-1,8,1
189059,0.01,-0.01,1.00,0.18,-0.31,0.12,-13.00,-9.00,41.00,53.650917,9.698254,5.60,0.28,12,3.940,0,144,-1,8,1
189159,0.01,0.00,1.01,-0.18,0.06,-0.18,-15.00,-9.00,41.00,53.650917,9.698254,5.60,0.28,12,3.910,0,148,-1,8,1
189259,-0.02,-0.00,1.01,0.49,-1.34,-0.12,-15.00,-8.00,37.00,53.650917,9.698254,5.60,0.22,12,3.840,0,152,-1,8,1
189360,-0.01,-0.00,1.00,-0.43,0.85,0.00,-19.00,-9.00,38.00,53.650917,9.698254,5.60,0.22,12,3.840,0,154,-1,8,1
189467,0.00,0.01,1.00,-0.37,1.34,0.55,-12.00,-9.00,42.00,53.650917,9.698254,5.60,0.22,12,3.940,0,144,-1,8,1
189567,-0.00,0.00,1.01,0.37,0.06,0.06,-15.00,-9.00,35.00,53.650917,9.698254,5.60,0.22,12,3.870,0,149,-1,8,1
189667,-0.00,0.00,1.00,-0.18,0.06,-0.12,-15.00,-9.00,38.00,53.650917,9.698254,5.60,0.22,12,3.940,0,149,-1,8,1
189767,0.00,-0.00,1.00,-0.24,-0.37,-0.43,-15.00,-8.00,34.00,53.650917,9.698254,5.60,0.22,12,3.940,0,151,-1,8,1
189867,-0.01,0.00,1.00,0.00,-0.79,-0.49,-12.00,-8.00,40.00,53.650917,9.698254,5.60,0.22,12,3.760,0,146,-1,8,1
189968,-0.01,-0.01,1.00,-0.18,0.61,0.79,-17.00,-10.00,38.00,53.650917,9.698255,5.60,0.22,12,3.870,0,149,-1,8,1
190068,-0.01,0.01,1.01,0.37,1.46,0.61,-12.00,-8.00,41.00,53.650917,9.698255,5.60,0.22,12,3.910,0,147,-1,8,1
190168,0.01,0.01,1.00,0.06,0.00,0.31,-15.00,-9.00,37.00,53.650917,9.698255,5.60,0.22,12,3.910,0,149,-1,8,1
190281,0.00,-0.00,1.00,0.00,-0.18,-0.73,-17.00,-9.00,35.00,53.650917,9.698255,5.60,0.24,12,3.810,0,151,-1,8,1
190381,0.00,-0.00,0.99,-0.37,-0.37,-0.85,-19.00,-8.00,39.00,53.650917,9.698255,5.60,0.46,12,3.860,0,156,-1,8,1
190481,-0.02,-0.01,0.99,0.24,-0.67,0.00,-16.00,-10.00,39.00,53.650917,9.698255,5.60,0.46,12,3.940,0,147,-1,8,1
190581,-0.00,0.02,1.02,-0.67,0.31,1.16,-13.00,-8.00,31.00,53.650917,9.698255,5.60,0.46,12,3.830,0,150,-1,8,1
190681,-0.01,-0.00,0.99,1.40,-1.65,0.24,-17.00,-9.00,38.00,53.650917,9.698255,5.60,0.46,12,3.830,0,152,-1,8,1
190781,0.01,-0.00,1.00,-0.18,0.06,-0.37,-14.00,-10.00,40.00,53.650917,9.698255,5.60,0.46,12,3.870,0,143,-1,8,1
190881,-0.00,-0.00,1.01,-0.31,-0.24,-0.73,-14.00,-9.00,36.00,53.650917,9.698255,5.60,0.46,12,3.930,0,147,-1,8,1
190982,-0.01,0.00,1.00,-0.61,0.18,-0.06,-13.00,-6.00,33.00,53.650917,9.698255,5.60,0.46,12,3.910,0,156,-1,8,1
191082,-0.02,-0.00,1.01,-0.12,1.34,0.79,-13.00,-8.00,36.00,53.650917,9.698255,5.60,0.46,12,3.850,-1,149,-1,8,1
191205,0.00,0.01,1.00,-0.24,0.43,0.18,-14.00,-9.00,36.00,53.650917,9.698255,5.70,0.46,12,3.900,0,148,-1,8,1
191305,0.00,-0.00,1.01,0.49,-0.12,-0.55,-13.00,-10.00,33.00,53.650917,9.698255,5.70,0.46,12,3.930,0,142,-1,8,1
191411,-0.02,-0.02,1.00,-0.79,0.24,-0.18,-15.00,-10.00,36.00,53.650917,9.698255,5.70,0.46,12,3.821,-1,145,-1,8,1
191511,-0.01,0.00,1.01,0.67,-1.16,0.31,-13.00,-11.00,36.00,53.650917,9.698255,5.70,0.09,12,3.930,0,141,-1,8,1
191611,0.00,0.02,0.98,0.49,-0.73,0.73,-16.00,-12.00,34.00,53.650917,9.698255,5.70,0.09,12,3.93-1,0,144,-1,8,1
191711,0.00,-0.00,0.99,0.31,-0.18,0.12,-15.00,-8.00,42.00,53.650917,9.698255,5.70,0.09,12,3.940,0,151,-1,8,1
191811,0.00,0.01,1.00,0.24,0.37,-0.67,-15.00,-6.00,38.00,53.650917,9.698255,5.70,0.09,12,3.940,0,158,-1,8,1
191911,0.00,-0.01,1.00,-0.31,-0.61,-0.49,-15.00,-8.00,32.00,53.650917,9.698255,5.70,0.09,12,3.930,0,151,-1,8,1
192011,-0.02,0.00,1.01,-0.06,0.06,0.18,-12.00,-8.00,38.00,53.650917,9.698255,5.70,0.09,12,3.890,-1,148,-1,8,1
192111,0.00,0.00,1.00,0.37,-0.43,0.55,-15.00,-8.00,31.00,53.650917,9.698255,5.70,0.09,12,3.900,0,152,-1,8,1
192211,0.00,0.02,1.00,-0.31,0.92,0.06,-17.00,-10.00,36.00,53.650917,9.698255,5.70,0.09,12,3.89-1,0,150,-1,8,1
192311,-0.02,0.01,0.99,-0.12,0.37,-0.24,-13.00,-9.00,39.00,53.650917,9.698255,5.70,0.09,12,3.860,0,147,-1,8,1
192411,0.01,0.00,1.00,0.18,0.92,-0.06,-12.00,-7.00,35.00,53.650917,9.698255,5.70,0.09,12,3.960,0,149,-1,8,1
192511,-0.01,-0.03,1.00,0.12,-1.46,0.00,-13.00,-9.00,38.00,53.650917,9.698255,5.80,0.09,12,3.771,0,143,-1,8,1
192611,-0.01,0.01,1.01,-0.37,0.31,-0.06,-13.00,-11.00,38.00,53.650917,9.698255,5.80,0.04,12,3.870,0,141,-1,8,1
192711,-0.01,0.02,1.00,0.37,0.12,0.37,-12.00,-10.00,38.00,53.650917,9.698255,5.80,0.04,12,3.93-1,0,142,-1,8,1
192811,0.01,0.03,0.99,0.73,-0.49,0.31,-14.00,-10.00,38.00,53.650917,9.698255,5.80,0.04,12,3.84-1,0,146,-1,8,1
192911,-0.00,-0.02,1.00,0.37,0.12,-0.49,-14.00,-12.00,34.00,53.650917,9.698255,5.80,0.04,12,3.781,0,138,-1,8,1
193011,-0.01,-0.01,1.00,0.24,-0.37,-0.49,-16.00,-9.00,41.00,53.650917,9.698255,5.80,0.04,12,3.930,0,150,-1,8,1
193111,-0.00,0.01,1.01,-0.37,0.98,-0.18,-11.00,-8.00,33.00,53.650917,9.698255,5.80,0.04,12,3.860,0,145,-1,8,1
193211,-0.01,0.02,1.00,-0.24,0.49,0.12,-16.00,-9.00,40.00,53.650917,9.698255,5.80,0.04,12,3.910,0,152,-1,8,1
193311,0.01,0.00,1.00,0.24,0.49,0.37,-14.00,-9.00,41.00,53.650917,9.698255,5.80,0.04,12,3.820,0,147,-1,8,1
193411,-0.01,-0.01,1.00,0.18,0.12,0.31,-15.00,-8.00,41.00,53.650917,9.698255,5.80,0.04,12,3.860,0,151,-1,8,1
193511,-0.00,-0.01,1.01,0.49,-0.92,0.37,-15.00,-11.00,40.00,53.650917,9.698255,5.80,0.04,12,3.900,0,142,-1,8,1
193676,0.01,0.02,0.99,0.37,0.06,-0.49,-15.00,-11.00,40.00,53.650917,9.698254,5.70,0.00,12,3.87-1,0,144,-1,8,1
193776,-0.00,-0.02,0.99,0.85,-1.04,-0.06,-15.00,-8.00,41.00,53.650917,9.698254,5.70,0.00,12,3.941,0,150,-1,8,1
193876,-0.02,0.00,1.01,0.00,0.85,0.55,-17.00,-8.00,36.00,53.650917,9.698254,5.70,0.00,12,3.890,0,155,-1,8,1
193976,0.02,0.01,0.99,-0.37,0.37,0.43,-14.00,-9.00,36.00,53.650917,9.698254,5.70,0.00,12,3.940,0,147,-1,8,1
194076,0.01,-0.01,1.01,-0.12,0.00,-0.37,-14.00,-8.00,33.00,53.650917,9.698254,5.70,0.00,12,3.840,0,148,-1,8,1
194176,0.00,0.02,1.00,0.06,-1.53,-0.37,-12.00,-8.00,36.00,53.650917,9.698254,5.70,0.00,12,3.860,0,148,-1,8,1
194276,0.01,0.01,1.01,0.00,-0.31,-0.43,-15.00,-10.00,34.00,53.650917,9.698254,5.70,0.00,12,3.840,0,146,-1,8,1
194376,0.00,-0.01,0.99,0.31,-0.92,-0.73,-15.00,-7.00,34.00,53.650917,9.698253,5.80,0.09,12,3.870,0,153,-1,8,1
194476,-0.01,-0.00,1.00,0.00,0.49,-0.55,-13.00,-9.00,34.00,53.650917,9.698253,5.80,0.06,12,3.900,0,145,-1,8,1
194576,0.00,0.03,1.00,-0.24,0.79,0.31,-16.00,-12.00,40.00,53.650917,9.698253,5.80,0.06,12,3.88-1,0,145,-1,8,1
194676,-0.00,-0.00,1.00,-0.55,0.06,0.18,-12.00,-9.00,32.00,53.650917,9.698253,5.80,0.06,12,3.900,0,142,-1,8,1
194776,0.01,-0.03,1.01,0.49,-1.04,-0.49,-12.00,-9.00,35.00,53.650917,9.698253,5.80,0.06,12,3.851,0,139,-1,8,1
194876,-0.02,0.00,1.00,-0.06,-0.31,-0.12,-12.00,-7.00,37.00,53.650917,9.698253,5.80,0.06,12,3.790,0,151,-1,8,1
194977,-0.01,0.02,1.00,-0.31,0.85,0.55,-13.00,-11.00,38.00,53.650917,9.698253,5.80,0.06,12,3.79-1,0,142,-1,8,1
195077,0.00,0.01,0.99,0.24,0.79,0.73,-14.00,-9.00,42.00,53.650917,9.698253,5.80,0.06,12,3.840,0,148,-1,8,1
195177,0.01,-0.01,1.00,0.61,-1.10,0.55,-13.00,-9.00,34.00,53.650917,9.698253,5.80,0.06,12,3.900,0,143,-1,8,1
195277,0.01,0.00,1.00,-0.43,-1.04,-0.18,-14.00,-8.00,40.00,53.650917,9.698253,5.80,0.06,12,3.760,0,150,-1,8,1
195377,-0.01,0.02,1.01,-0.61,0.61,-0.37,-16.00,-8.00,35.00,53.650917,9.698253,5.70,0.28,12,3.92-1,0,156,-1,8,1
195477,-0.02,-0.02,1.02,-0.37,1.95,0.12,-18.00,-8.00,41.00,53.650917,9.698253,5.70,0.22,12,3.931,0,154,-1,8,1
195577,-0.01,-0.01,1.03,-0.43,0.31,0.00,-17.00,-8.00,36.00,53.650917,9.698253,5.70,0.22,12,3.920,0,154,-1,8,1
195677,0.01,0.03,1.00,-0.18,-0.12,-0.18,-14.00,-9.00,39.00,53.650917,9.698253,5.70,0.22,12,3.88-1,0,149,-1,8,1
195777,-0.01,-0.00,1.00,-0.18,0.31,0.06,-15.00,-11.00,36.00,53.650917,9.698253,5.70,0.22,12,3.890,0,143,-1,8,1
195877,0.02,0.00,0.99,1.59,-2.56,-0.12,-13.00,-7.00,36.00,53.650917,9.698253,5.70,0.22,12,3.930,1,150,-1,8,1
195977,0.00,-0.02,0.99,0.00,-1.34,-0.67,-14.00,-10.00,38.00,53.650917,9.698253,5.70,0.22,12,3.930,0,142,-1,8,1
196077,-0.01,0.00,1.00,0.12,-1.53,-0.73,-12.00,-10.00,39.00,53.650917,9.698253,5.70,0.22,12,3.930,0,141,-1,8,1
196177,-0.00,0.02,1.01,0.67,-0.73,-0.06,-12.00,-8.00,36.00,53.650917,9.698253,5.70,0.22,12,3.91-1,0,149,-1,8,1
196277,-0.01,-0.01,1.00,0.55,0.67,0.31,-15.00,-9.00,38.00,53.650917,9.698253,5.70,0.22,12,3.790,0,149,-1,8,1
196377,0.01,-0.01,1.00,-0.24,0.06,-0.06,-12.00,-9.00,36.00,53.650917,9.698253,5.80,0.22,12,3.920,0,141,-1,8,1
196477,-0.00,0.00,1.00,-0.55,-0.43,0.00,-17.00,-7.00,38.00,53.650917,9.698253,5.80,0.22,12,3.960,0,158,-1,8,1
196578,0.00,0.01,1.00,-0.18,0.00,0.31,-12.00,-8.00,41.00,53.650917,9.698253,5.80,0.22,12,3.970,0,147,-1,8,1
196678,-0.00,0.00,1.00,0.06,0.73,0.06,-12.00,-9.00,40.00,53.650917,9.698253,5.80,0.22,12,3.940,0,143,-1,8,1
196778,-0.01,-0.01,1.01,0.79,0.24,-0.12,-13.00,-7.00,38.00,53.650917,9.698253,5.80,0.22,12,3.940,0,150,-1,8,1
196896,0.01,0.02,0.99,0.31,-0.12,0.31,-12.00,-9.00,39.00,53.650917,9.698253,5.80,0.22,12,3.92-1,0,145,-1,8,1
196996,-0.00,-0.01,1.00,-0.06,-0.37,-0.06,-15.00,-8.00,38.00,53.650917,9.698253,5.80,0.22,12,3.930,0,151,-1,8,1
197096,-0.00,-0.00,1.01,0.12,-0.85,-0.67,-15.00,-8.00,42.00,53.650917,9.698253,5.80,0.22,12,3.940,0,151,-1,8,1
197196,-0.02,0.00,1.01,-0.12,0.24,-0.12,-15.00,-8.00,36.00,53.650917,9.698253,5.80,0.22,12,3.870,-1,153,-1,8,1
197296,0.00,0.00,1.00,0.00,0.37,0.55,-15.00,-8.00,36.00,53.650917,9.698253,5.80,0.22,12,3.920,0,152,-1,8,1
197396,-0.00,0.01,1.00,0.12,0.24,0.43,-13.00,-8.00,43.00,53.650917,9.698253,5.80,0.22,12,3.940,0,149,-1,8,1
197496,0.00,-0.00,1.00,-0.06,-0.85,-0.31,-13.00,-8.00,43.00,53.650917,9.698253,5.70,0.19,12,3.920,0,147,-1,8,1
197596,-0.01,-0.00,1.00,-0.24,-0.43,-0.49,-12.00,-9.00,41.00,53.650917,9.698253,5.70,0.19,12,3.870,0,143,-1,8,1
197696,-0.01,0.01,1.00,-0.12,0.31,0.12,-12.00,-9.00,41.00,53.650917,9.698253,5.70,0.19,12,3.960,0,144,-1,8,1
197796,-0.00,0.00,1.00,-0.12,0.49,0.31,-11.00,-12.00,42.00,53.650917,9.698253,5.70,0.19,12,3.970,0,132,-1,8,1
197896,-0.00,-0.00,1.00,0.06,0.00,-0.06,-9.00,-9.00,38.00,53.650917,9.698253,5.70,0.19,12,3.930,0,134,-1,8,1
197997,0.00,-0.00,1.00,-0.06,-0.12,-0.18,-13.00,-5.00,40.00,53.650917,9.698253,5.70,0.19,12,3.950,0,158,-1,8,1
198097,-0.00,0.01,1.00,0.12,-0.06,-0.31,-14.00,-9.00,34.00,53.650917,9.698253,5.70,0.19,12,3.960,0,148,-1,8,1
198197,-0.00,-0.00,1.00,0.12,-0.06,-0.06,-14.00,-9.00,40.00,53.650917,9.698253,5.70,0.07,12,3.940,0,147,-1,8,1
198298,-0.00,-0.00,1.00,-0.18,0.37,0.06,-11.00,-7.00,38.00,53.650917,9.698253,5.70,0.07,12,3.930,0,147,-1,8,1
198398,-0.01,0.01,1.00,-0.24,0.43,0.12,-17.00,-5.00,41.00,53.650917,9.698253,5.70,0.07,12,3.930,0,164,-1,8,1
198498,-0.00,-0.00,1.00,-0.18,0.49,0.06,-16.00,-9.00,42.00,53.650917,9.698253,5.70,0.07,12,3.960,0,150,-1,8,1
198598,0.00,0.00,1.00,-0.06,0.00,0.00,-14.00,-8.00,41.00,53.650917,9.698253,5.70,0.07,12,3.980,0,150,-1,8,1
198698,-0.00,0.00,1.00,0.12,-0.12,-0.06,-14.00,-9.00,43.00,53.650917,9.698253,5.70,0.07,12,3.960,0,148,-1,8,1
198798,0.00,0.00,1.00,0.37,0.31,-0.18,-11.00,-11.00,36.00,53.650917,9.698253,5.60,0.35,12,3.920,0,134,-1,8,1
198898,-0.01,0.01,1.00,0.12,0.18,-0.06,-18.00,-11.00,46.00,53.650917,9.698253,5.60,0.35,12,3.930,0,149,-1,8,1
198998,-0.00,-0.00,1.00,0.00,0.06,0.06,-15.00,-6.00,45.00,53.650917,9.698253,5.60,0.35,12,3.930,0,157,-1,8,1
199098,-0.00,-0.00,1.00,0.12,0.24,0.43,-9.00,-4.00,44.00,53.650917,9.698253,5.60,0.35,12,3.910,0,155,-1,8,1
199198,0.00,-0.00,1.00,-0.12,0.12,0.00,-18.00,-4.00,45.00,53.650917,9.698253,5.60,0.35,12,3.920,0,166,-1,8,1
199298,0.00,0.01,1.00,0.00,-0.31,-0.49,-14.00,-6.00,45.00,53.650917,9.698253,5.60,0.35,12,3.930,0,157,-1,8,1
199398,-0.01,0.00,1.00,0.06,-0.43,-0.31,-12.00,-5.00,46.00,53.650917,9.698253,5.60,0.35,12,3.950,0,158,-1,8,1
199498,-0.01,-0.00,1.00,0.06,0.31,0.12,-15.00,-3.00,52.00,53.650917,9.698253,5.60,0.35,12,3.960,0,168,-1,8,1
199599,-0.00,0.01,1.00,0.06,0.55,0.43,-13.00,-4.00,44.00,53.650917,9.698253,5.60,0.02,12,3.980,0,164,-1,8,1
199701,0.01,-0.00,1.00,0.06,-0.06,0.00,-14.00,-4.00,44.00,53.650917,9.698253,5.60,0.02,12,3.950,0,163,-1,8,1
199801,0.00,-0.00,1.00,-0.06,-0.67,-0.37,-13.00,-4.00,43.00,53.650917,9.698253,5.60,0.02,12,3.930,0,162,-1,8,1
199901,-0.01,0.00,1.00,-0.06,-0.49,-0.43,-16.00,-4.00,43.00,53.650917,9.698253,5.60,0.02,12,3.900,0,166,-1,8,1
200001,-0.01,0.00,1.00,0.00,-0.06,-0.06,-14.00,-6.00,44.00,53.650917,9.698253,5.60,0.02,12,3.920,0,157,-1,8,1
200101,-0.00,0.00,1.00,-0.06,0.49,0.24,-12.00,-5.00,46.00,53.650917,9.698253,5.60,0.02,12,3.930,0,158,-1,8,1
200201,0.00,0.00,1.00,0.06,0.12,0.24,-15.00,-4.00,40.00,53.650917,9.698252,5.50,0.19,12,3.900,0,165,-1,8,1
200301,0.00,-0.00,1.00,-0.06,0.06,-0.06,-13.00,-5.00,46.00,53.650917,9.698252,5.50,0.19,12,3.850,0,158,-1,8,1
200401,-0.00,-0.00,1.00,-0.06,0.24,-0.12,-11.00,-5.00,44.00,53.650917,9.698252,5.50,0.19,12,3.930,0,155,-1,8,1
200502,-0.00,0.00,1.00,-0.12,0.12,-0.18,-13.00,-6.00,47.00,53.650917,9.698252,5.50,0.19,12,3.920,0,155,-1,8,1
200602,0.00,0.00,1.00,0.06,-0.18,0.18,-15.00,-4.00,42.00,53.650917,9.698252,5.50,0.19,12,3.900,0,165,-1,8,1
200702,0.00,-0.01,1.00,-0.06,0.06,-0.12,-11.00,-5.00,48.00,53.650917,9.698252,5.50,0.19,12,3.940,0,153,-1,8,1
200802,0.00,0.01,1.00,-0.12,-0.12,-0.37,-18.00,-5.00,42.00,53.650917,9.698252,5.50,0.19,12,3.960,0,165,-1,8,1
200902,-0.01,0.00,1.00,0.12,-0.31,-0.12,-12.00,-4.00,44.00,53.650917,9.698252,5.50,0.19,12,3.930,0,162,-1,8,1
201002,-0.00,-0.01,1.00,0.00,0.00,0.06,-13.00,-5.00,43.00,53.650917,9.698252,5.50,0.19,12,3.910,0,158,-1,8,1
201103,-0.00,0.01,1.00,-0.06,0.37,0.12,-13.00,-4.00,43.00,53.650917,9.698252,5.50,0.19,12,3.910,0,164,-1,8,1
201203,0.00,0.00,1.00,0.06,-0.06,0.00,-14.00,-6.00,43.00,53.650917,9.698252,5.50,0.19,12,3.880,0,156,-1,8,1
201358,-0.00,-0.00,1.00,-0.12,0.06,-0.31,-14.00,-7.00,43.00,53.650917,9.698252,5.50,0.19,12,4.020,0,153,-1,8,1
201458,-0.00,0.01,1.00,0.00,-0.06,0.00,-13.00,-4.00,40.00,53.650917,9.698252,5.50,0.19,12,3.870,0,164,-1,8,1
201558,-0.00,-0.00,1.00,0.12,0.00,0.18,-15.00,-7.00,44.00,53.650917,9.698252,5.50,0.19,12,3.900,0,154,-1,8,1
201658,0.00,0.00,1.00,-0.12,0.24,-0.06,-15.00,-4.00,41.00,53.650917,9.698252,5.50,0.19,12,3.920,0,165,-1,8,1
201766,0.00,0.00,1.00,0.12,-0.18,0.12,-17.00,-4.00,43.00,53.650917,9.698252,5.50,0.19,12,3.930,0,167,-1,8,1
201866,-0.00,-0.01,1.00,0.06,-0.06,-0.18,-13.00,-3.00,43.00,53.650917,9.698251,5.50,0.04,12,3.880,0,165,-1,8,1
201966,-0.00,0.01,1.00,0.00,0.00,-0.18,-13.00,-8.00,42.00,53.650917,9.698251,5.50,0.04,12,3.930,0,149,-1,8,1
202066,-0.00,0.00,1.00,0.06,-0.31,0.06,-11.00,-5.00,45.00,53.650917,9.698251,5.50,0.04,12,3.920,0,156,-1,8,1
202166,-0.00,-0.01,1.00,-0.06,0.06,-0.12,-9.00,-3.00,49.00,53.650917,9.698251,5.50,0.04,12,3.920,0,160,-1,8,1
202266,0.00,0.00,1.00,-0.12,0.18,0.00,-10.00,-6.00,41.00,53.650917,9.698251,5.50,0.04,12,3.930,0,149,-1,8,1
202386,-0.00,0.00,1.00,0.06,-0.24,0.06,-12.00,-6.00,46.00,53.650917,9.698251,5.50,0.04,12,3.900,0,154,-1,8,1
202486,-0.00,-0.00,1.00,0.00,0.18,-0.12,-19.00,-2.00,46.00,53.650917,9.698251,5.50,0.04,12,3.910,0,173,-1,8,1
202586,0.00,0.00,1.00,-0.06,0.00,0.06,-13.00,-6.00,44.00,53.650917,9.698251,5.50,0.04,12,3.920,0,155,-1,8,1
202686,-0.00,0.00,1.00,0.00,-0.12,0.06,-13.00,-2.00,49.00,53.650917,9.698251,5.50,0.04,12,3.940,0,171,-1,8,1
202786,0.00,-0.00,1.00,0.00,0.24,-0.06,-14.00,-3.00,40.00,53.650917,9.698251,5.50,0.04,12,3.830,0,167,-1,8,1
202886,0.00,-0.00,0.99,-0.06,0.31,0.12,-12.00,-4.00,43.00,53.650917,9.698251,5.50,0.04,12,3.870,0,161,-1,8,1
202987,-0.01,-0.00,1.00,-0.06,-0.24,-0.06,-13.00,-5.00,44.00,53.650917,9.698251,5.50,0.04,12,3.910,0,159,-1,8,1
203087,0.01,0.01,0.99,0.12,-0.06,-0.12,-14.00,-4.00,43.00,53.650917,9.698251,5.50,0.04,12,3.840,0,164,-1,8,1
203187,-0.01,-0.00,1.00,0.00,0.06,0.18,-17.00,-6.00,45.00,53.650917,9.698251,5.50,0.04,12,3.930,0,160,-1,8,1
203287,0.00,-0.00,1.00,0.06,-0.06,0.06,-14.00,-4.00,44.00,53.650917,9.698251,5.50,0.04,12,3.910,0,163,-1,8,1
203387,0.00,0.00,1.00,-0.18,0.12,-0.12,-19.00,-5.00,46.00,53.650917,9.698251,5.50,0.04,12,3.910,0,165,-1,8,1
203514,-0.01,0.01,1.00,0.12,-0.37,-0.18,-17.00,-8.00,44.00,53.650921,9.698250,5.50,0.50,12,3.900,0,156,-1,8,1
203615,-0.01,-0.01,1.00,0.18,0.00,0.06,-17.00,-6.00,47.00,53.650921,9.698250,5.10,0.33,12,3.910,0,159,-1,8,1
203715,-0.01,-0.00,1.00,0.06,0.12,0.00,-16.00,-5.00,48.00,53.650921,9.698250,5.10,0.33,12,3.930,0,162,-1,8,1
203819,0.01,0.02,0.99,-0.18,-0.18,-0.06,-13.00,-9.00,45.00,53.650921,9.698250,5.10,0.33,12,4.030,0,147,-1,8,1
203919,-0.01,-0.01,1.00,0.12,0.18,0.12,-13.00,-6.00,47.00,53.650921,9.698250,5.10,0.33,12,3.850,0,154,-1,8,1
204020,0.00,-0.00,1.00,-0.06,0.18,-0.06,-11.00,-5.00,45.00,53.650921,9.698250,5.10,0.33,12,3.800,0,154,-1,8,1
204120,-0.00,0.01,0.98,0.06,0.00,0.00,-19.00,-5.00,45.00,53.650921,9.698250,5.10,0.33,12,3.930,0,166,-1,8,1
204220,-0.01,0.00,1.01,-0.24,-0.37,-0.37,-13.00,-2.00,44.00,53.650921,9.698250,5.10,0.33,12,3.900,0,172,-1,8,1
204320,0.01,-0.00,1.00,-0.06,0.24,-0.12,-14.00,-3.00,39.00,53.650921,9.698250,5.10,0.33,12,3.830,0,167,-1,8,1
204420,-0.02,0.00,1.00,-0.06,0.24,0.12,-13.00,-3.00,45.00,53.650921,9.698250,5.10,0.33,12,3.910,-1,168,-2,8,1
204520,0.03,-0.01,1.00,-0.06,-0.43,-0.43,-17.00,-4.00,42.00,53.650921,9.698250,5.10,0.33,12,3.920,1,165,-1,8,1
204620,-0.01,-0.00,1.01,0.06,0.12,0.00,-16.00,-4.00,45.00,53.650921,9.698249,5.10,0.33,12,3.900,0,166,-1,8,1
204720,0.00,0.01,1.01,0.24,0.49,0.43,-14.00,-3.00,37.00,53.650921,9.698249,5.10,0.24,12,3.930,0,169,-1,8,1
204820,0.00,-0.01,1.01,0.12,0.18,0.55,-12.00,-3.00,46.00,53.650921,9.698249,5.10,0.24,12,3.920,0,164,-1,8,1
204920,-0.00,0.01,1.00,0.00,-0.73,-0.06,-16.00,-6.00,43.00,53.650921,9.698249,5.10,0.11,12,3.900,0,160,-1,8,1
205020,-0.00,-0.01,0.99,-0.18,-0.12,-0.31,-14.00,-5.00,40.00,53.650921,9.698249,5.10,0.11,12,3.840,0,158,-1,8,1
205120,-0.02,0.00,1.00,-0.18,-0.18,-0.49,-10.00,-3.00,44.00,53.650921,9.698249,5.10,0.11,12,3.940,0,164,-1,8,1
205220,0.00,0.01,1.03,0.31,0.55,0.00,-15.00,-4.00,40.00,53.650921,9.698249,5.10,0.11,12,3.960,0,166,-1,8,1
205320,-0.02,-0.02,1.01,0.00,0.67,0.67,-14.00,-5.00,48.00,53.650921,9.698249,5.10,0.11,12,3.941,-1,158,-1,8,1
205420,0.04,0.01,0.99,0.12,0.98,0.73,-13.00,-5.00,42.00,53.650921,9.698249,5.10,0.11,12,3.890,2,157,-1,8,1
205520,0.01,0.00,1.00,0.06,-0.18,-0.24,-15.00,-5.00,46.00,53.650921,9.698249,5.10,0.11,12,3.920,0,161,-1,8,1
205620,-0.01,0.00,0.99,0.00,-0.61,-1.22,-17.00,-7.00,44.00,53.650921,9.698249,5.10,0.11,12,3.920,0,158,-1,8,1
205720,-0.00,0.00,1.00,0.00,-0.12,-0.24,-17.00,-4.00,47.00,53.650921,9.698249,5.10,0.24,12,3.930,0,167,-1,8,1
205826,-0.00,-0.00,1.00,-0.18,0.31,0.79,-12.00,-6.00,46.00,53.650921,9.698249,5.10,0.50,12,3.720,0,153,-1,8,1
205926,0.00,0.00,1.00,-0.06,0.31,0.55,-15.00,-5.00,48.00,53.650921,9.698249,5.00,0.35,12,3.930,0,161,-1,8,1
206026,0.01,-0.00,1.01,-0.18,-0.49,-0.31,-19.00,6.00,65.00,53.650921,9.698249,5.00,0.31,12,3.880,0,-161,-1,8,1
206126,-0.00,0.00,0.99,0.12,-0.24,-0.55,-14.00,16.00,54.00,53.650921,9.698249,5.00,0.31,12,3.920,0,-131,-1,8,1
206226,-0.01,0.00,1.00,-0.12,-0.37,-0.31,-13.00,22.00,47.00,53.650921,9.698249,5.00,0.06,12,3.940,0,-121,-1,8,1
206326,-0.00,-0.01,1.00,-0.06,0.18,-0.06,-9.00,28.00,46.00,53.650921,9.698249,5.00,0.06,12,3.880,0,-108,-1,8,1
206426,-0.00,0.01,0.98,-0.37,-0.18,0.12,-16.00,38.00,39.00,53.650921,9.698249,5.00,0.06,12,3.920,0,-112,-1,8,1
206526,-0.00,-0.00,1.00,0.12,0.12,0.18,-13.00,36.00,40.00,53.650921,9.698249,5.00,0.06,12,3.890,0,-110,-1,8,1
206626,-0.00,-0.01,0.99,-0.06,-0.06,-0.18,-18.00,37.00,36.00,53.650921,9.698249,5.00,0.06,12,3.840,0,-116,-1,8,1
206726,-0.00,0.00,1.00,0.12,0.37,0.24,-20.00,34.00,38.00,53.650921,9.698249,5.00,0.06,12,3.910,0,-120,-1,8,1
206833,-0.01,0.00,1.00,0.12,-0.06,0.43,-12.00,35.00,37.00,53.650921,9.698249,5.00,0.39,12,3.830,0,-109,-1,8,1
206933,0.01,-0.00,1.01,0.00,0.37,0.12,-11.00,28.00,36.00,53.650921,9.698249,5.00,0.30,12,3.930,0,-110,-1,8,1
207033,0.01,-0.01,1.00,0.06,-0.55,-0.24,-12.00,27.00,36.00,53.650921,9.698249,5.00,0.11,12,3.870,0,-113,-1,8,1
207134,-0.00,0.02,1.00,-0.18,0.00,-0.73,-10.00,30.00,37.00,53.650921,9.698249,5.00,0.11,12,3.93-1,0,-108,-1,8,1
207234,-0.00,0.00,0.99,0.18,-0.06,-0.43,-10.00,25.00,36.00,53.650921,9.698249,5.00,0.02,12,3.840,0,-112,-1,8,1
207335,-0.02,-0.01,0.99,0.12,-0.06,0.00,-12.00,26.00,35.00,53.650921,9.698249,5.00,0.02,12,3.890,0,-115,-1,8,1
207435,-0.00,-0.00,1.00,0.31,0.79,0.61,-8.00,25.00,36.00,53.650921,9.698249,5.00,0.02,12,3.840,0,-107,-1,8,1
207535,0.01,-0.01,1.01,-0.24,-0.49,0.43,-11.00,25.00,33.00,53.650921,9.698249,5.00,0.02,12,3.810,0,-113,-1,8,1
207635,-0.01,0.01,1.00,-0.24,-0.37,-0.49,-9.00,27.00,33.00,53.650921,9.698249,5.00,0.02,12,3.930,0,-108,-1,8,1
207735,-0.00,0.01,1.00,0.06,-0.18,-0.37,-16.00,25.00,40.00,53.650921,9.698249,5.00,0.11,12,3.940,0,-122,-1,8,1
207835,-0.01,-0.02,1.00,0.24,0.12,0.43,-12.00,27.00,35.00,53.650921,9.698249,5.00,0.11,12,3.821,0,-115,-1,8,1
207935,0.01,0.00,1.01,-0.49,0.49,0.55,-10.00,28.00,37.00,53.650921,9.698249,5.00,0.11,12,3.930,0,-109,-1,8,1
208035,0.01,0.05,1.01,0.18,0.37,0.24,-15.00,28.00,30.00,53.650921,9.698249,5.00,0.11,12,3.89-2,0,-116,-1,8,1
208135,0.01,-0.01,1.00,0.61,-0.18,-0.06,-10.00,26.00,32.00,53.650921,9.698249,5.00,0.11,12,3.890,0,-110,-1,8,1
208235,-0.01,-0.03,0.99,-0.43,-0.37,-0.85,-9.00,32.00,33.00,53.650921,9.698249,5.00,0.11,12,3.851,0,-106,-1,8,1
208336,-0.01,0.02,1.00,0.00,0.31,-0.18,-9.00,30.00,36.00,53.650921,9.698249,5.00,0.11,12,3.92-1,0,-107,-1,8,1
208436,-0.00,0.02,1.00,0.31,0.31,0.61,-10.00,32.00,33.00,53.650921,9.698249,5.00,0.11,12,3.88-1,0,-107,-1,8,1
208536,0.01,-0.02,1.00,0.00,0.12,0.24,-13.00,31.00,38.00,53.650921,9.698249,5.00,0.11,12,3.921,0,-112,-2,8,1
208636,0.00,0.00,1.00,0.24,0.92,-0.12,-16.00,29.00,33.00,53.650921,9.698248,5.00,0.19,12,3.920,0,-118,-2,8,1
208736,-0.00,0.01,1.01,0.43,0.55,0.00,-16.00,29.00,33.00,53.650921,9.698248,5.00,0.56,12,3.910,0,-118,-1,8,1
208836,0.00,-0.01,1.00,-0.06,-0.49,0.06,-12.00,29.00,34.00,53.650921,9.698248,5.00,0.56,12,3.790,0,-112,-1,8,1
208936,-0.00,-0.00,1.00,0.06,-0.37,-0.31,-9.00,26.00,37.00,53.650921,9.698248,5.00,0.17,12,3.940,0,-109,-2,8,1
209036,-0.01,0.02,1.01,0.12,1.28,-0.37,-11.00,25.00,33.00,53.650921,9.698248,5.00,0.17,12,3.89-1,0,-114,-1,8,1
209136,0.02,-0.01,1.00,0.18,0.24,0.37,-11.00,25.00,33.00,53.650921,9.698248,5.00,0.17,12,3.890,1,-112,-1,8,1
209236,-0.00,-0.01,1.01,0.43,-0.31,0.00,-10.00,27.00,35.00,53.650921,9.698248,5.00,0.09,12,3.920,0,-110,-1,8,1
209338,0.00,0.02,0.98,-0.37,0.37,-0.55,-14.00,23.00,37.00,53.650921,9.698248,5.00,0.09,12,3.970,0,-120,-1,8,1
209438,-0.01,0.01,1.01,0.31,0.49,-0.12,-20.00,28.00,35.00,53.650921,9.698248,5.00,0.09,12,3.990,0,-125,-1,8,1
209538,0.00,-0.03,1.01,0.06,-0.12,0.43,-12.00,24.00,36.00,53.650921,9.698248,5.00,0.09,12,3.951,0,-117,-1,8,1
209638,0.00,0.00,0.99,-0.18,1.59,0.18,-9.00,25.00,37.00,53.650921,9.698248,5.00,0.09,12,3.980,0,-109,-1,8,1
209738,-0.00,0.02,1.01,-0.12,0.85,-0.06,-8.00,25.00,34.00,53.650921,9.698248,5.00,0.09,12,3.81-1,0,-107,-1,8,1
209838,0.03,0.01,1.01,0.12,-1.04,-0.06,-9.00,24.00,30.00,53.650921,9.698248,5.00,0.09,12,3.910,1,-108,-1,8,1
209938,-0.00,-0.02,1.00,-0.06,-0.37,-0.55,-7.00,25.00,36.00,53.650921,9.698248,5.00,0.09,12,3.921,0,-106,-1,8,1
210038,-0.00,0.00,1.00,-0.12,0.31,-0.24,-10.00,23.00,35.00,53.650921,9.698248,5.00,0.09,12,3.940,0,-113,-1,8,1
210149,0.01,0.01,1.02,0.24,0.18,0.49,-11.00,25.00,37.00,53.650921,9.698248,5.00,0.09,12,3.950,0,-112,-1,8,1
210249,0.00,-0.00,1.01,-0.61,-0.55,-0.12,-12.00,26.00,37.00,53.650921,9.698248,5.00,0.09,12,3.950,0,-114,-1,8,1
210351,-0.00,-0.00,1.01,-0.06,0.18,-0.18,-10.00,24.00,35.00,53.650921,9.698248,5.00,0.09,12,3.910,0,-112,-1,8,1
210451,0.00,-0.01,1.00,0.12,0.67,0.24,-13.00,23.00,33.00,53.650921,9.698248,5.00,0.09,12,3.920,0,-119,-1,8,1
210551,0.02,0.00,1.01,-0.12,-0.31,-0.06,-10.00,23.00,40.00,53.650921,9.698248,5.00,0.09,12,3.940,1,-111,-1,8,1
210651,-0.01,-0.00,1.02,-0.24,-1.46,-0.79,-11.00,22.00,32.00,53.650921,9.698248,5.00,0.09,12,3.930,0,-117,-1,8,1
210751,0.01,-0.01,1.01,-0.37,-0.73,-0.18,-11.00,24.00,33.00,53.650921,9.698246,5.10,0.39,12,3.920,0,-114,-1,8,1
210851,-0.01,0.00,1.00,0.12,0.79,0.37,-12.00,25.00,34.00,53.650921,9.698246,5.10,0.20,12,3.930,0,-116,-1,8,1
210952,0.01,0.00,0.99,0.73,0.61,0.06,-15.00,25.00,33.00,53.650921,9.698246,5.10,0.20,12,3.940,0,-120,-1,8,1
211052,-0.01,-0.01,1.00,-0.06,0.06,-0.12,-11.00,25.00,31.00,53.650921,9.698246,5.10,0.20,12,3.950,0,-114,-1,8,1
211152,0.01,-0.00,1.01,-0.12,0.12,-0.06,-10.00,26.00,34.00,53.650921,9.698246,5.10,0.20,12,3.960,0,-110,-1,8,1
211282,0.03,0.00,0.99,-0.18,-0.79,0.18,-12.00,24.00,30.00,53.650921,9.698245,5.10,0.43,12,3.920,1,-114,-1,8,1
211383,-0.02,-0.00,1.00,0.12,-0.24,-0.31,-13.00,24.00,35.00,53.650921,9.698245,5.10,0.43,12,3.890,-1,-120,-1,8,1
211495,0.02,0.01,1.00,-0.06,-0.18,-0.12,-11.00,25.00,31.00,53.650921,9.698245,5.10,0.31,12,3.960,0,-112,-1,8,1
211595,0.01,0.01,1.01,-0.67,-0.79,0.24,-12.00,24.00,31.00,53.650921,9.698245,5.10,0.02,12,3.910,0,-115,-1,8,1
211695,0.00,-0.00,1.01,0.24,0.18,-0.12,-12.00,25.00,31.00,53.650921,9.698245,5.10,0.02,12,3.920,0,-115,-1,8,1
211795,-0.00,0.01,0.98,0.31,0.43,-0.31,-11.00,25.00,33.00,53.650921,9.698245,5.10,0.02,12,3.930,0,-113,-1,8,1
211895,0.01,0.01,1.00,-1.16,-1.40,-0.31,-12.00,25.00,37.00,53.650921,9.698245,5.10,0.02,12,3.920,0,-114,-1,8,1
211995,-0.01,0.01,1.01,-0.24,-0.37,0.00,-14.00,24.00,36.00,53.650921,9.698245,5.10,0.02,12,3.920,0,-120,-1,8,1
212096,0.00,-0.01,1.00,0.67,0.73,0.18,-17.00,26.00,31.00,53.650921,9.698245,5.10,0.02,12,3.910,0,-123,-1,8,1
212196,0.01,-0.00,1.01,-0.55,-0.43,0.00,-12.00,26.00,35.00,53.650921,9.698245,5.10,0.02,12,3.960,0,-114,-1,8,1
212296,0.01,0.00,1.03,0.37,0.37,-0.31,-11.00,25.00,37.00,53.650921,9.698245,5.10,0.02,12,3.970,0,-113,-1,8,1
212407,-0.01,-0.01,0.99,0.61,1.28,-0.24,-12.00,24.00,34.00,53.650921,9.698245,5.10,0.02,12,3.770,0,-117,-1,8,1
212507,-0.00,-0.00,0.99,0.24,1.59,0.18,-10.00,25.00,34.00,53.650921,9.698245,5.10,0.02,12,3.990,0,-111,-1,8,1
212607,0.00,0.00,0.98,-0.31,-0.61,0.31,-13.00,23.00,37.00,53.650921,9.698245,5.30,0.24,12,3.920,0,-119,-1,8,1
212707,0.02,0.01,1.01,-0.31,-0.12,-0.12,-12.00,22.00,29.00,53.650921,9.698245,5.30,0.24,12,3.910,0,-117,-1,8,1
212807,0.01,-0.00,1.02,0.00,-0.18,-0.61,-15.00,25.00,31.00,53.650921,9.698245,5.30,0.24,12,3.870,0,-120,-1,8,1
212907,-0.01,0.00,1.00,-0.73,-1.40,-0.43,-12.00,24.00,29.00,53.650921,9.698245,5.30,0.24,12,3.950,0,-116,-1,8,1
213007,-0.00,-0.02,1.01,-0.67,-0.55,0.24,-10.00,25.00,33.00,53.650921,9.698245,5.30,0.24,12,3.970,0,-112,-1,8,1
213107,0.01,-0.00,1.02,-1.53,-2.38,0.24,-12.00,26.00,34.00,53.650921,9.698245,5.30,0.24,12,3.970,0,-114,-1,8,1
213207,0.00,0.02,1.00,-0.31,-0.67,-0.31,-11.00,24.00,36.00,53.650921,9.698245,5.30,0.24,12,3.920,0,-114,-1,8,1
213307,-0.00,-0.01,1.01,1.22,1.53,-0.31,-10.00,27.00,29.00,53.650921,9.698245,5.30,0.24,12,3.880,0,-110,-1,8,1
213407,-0.00,-0.01,1.00,0.12,0.67,0.55,-10.00,25.00,29.00,53.650921,9.698245,5.30,0.24,12,3.920,0,-112,-1,8,1
213540,0.03,0.00,1.00,0.06,0.85,0.49,-10.00,25.00,34.00,53.650921,9.698245,5.30,0.24,12,3.940,1,-109,-1,8,1
213640,0.02,0.01,1.01,-0.18,0.06,-0.06,-12.00,26.00,34.00,53.650921,9.698245,5.30,0.24,12,3.930,1,-113,-1,8,1
213740,-0.02,0.01,1.00,-0.24,-1.71,-0.73,-11.00,26.00,29.00,53.650921,9.698245,5.40,0.24,12,3.900,0,-113,-1,8,1
213840,0.01,-0.01,1.00,-0.12,-0.79,-0.24,-11.00,28.00,29.00,53.650921,9.698245,5.40,0.24,12,3.950,0,-111,-1,8,1
213948,0.01,0.01,1.00,0.12,1.04,0.43,-12.00,25.00,35.00,53.650921,9.698245,5.40,0.19,12,3.930,0,-114,-1,8,1
214048,-0.00,-0.00,0.99,0.49,0.73,0.18,-15.00,25.00,34.00,53.650921,9.698245,5.50,0.30,12,3.900,0,-121,-1,8,1
214150,0.02,0.01,0.99,0.18,-0.79,-0.37,-11.00,25.00,27.00,53.650921,9.698245,5.50,0.63,12,3.920,0,-112,-1,8,1
214250,-0.00,-0.01,1.02,-0.31,-0.31,-0.37,-11.00,25.00,31.00,53.650921,9.698245,5.50,0.31,12,3.860,0,-114,-1,8,1
214350,0.01,-0.01,1.03,-1.16,-0.61,-0.06,-11.00,23.00,36.00,53.650921,9.698245,5.50,0.31,12,3.900,0,-115,-1,8,1
214451,0.00,0.01,1.01,-0.61,-0.79,0.55,-12.00,26.00,35.00,53.650921,9.698245,5.50,0.31,12,3.880,0,-114,-1,8,1
214551,0.01,-0.02,1.01,0.49,-0.37,0.55,-10.00,27.00,33.00,53.650921,9.698245,5.50,0.31,12,3.931,0,-110,-1,8,1
214651,-0.00,0.01,0.97,0.06,0.12,-0.37,-10.00,25.00,37.00,53.650921,9.698245,5.50,0.31,12,3.920,0,-111,-1,8,1
214751,0.00,0.01,0.99,0.18,-0.31,-0.55,-12.00,25.00,34.00,53.650921,9.698245,5.50,0.31,12,3.780,0,-115,-1,8,1
214851,-0.01,0.00,1.00,-0.12,-0.24,-0.06,-10.00,26.00,37.00,53.650921,9.698244,5.60,0.31,12,3.890,0,-111,-1,8,1
214951,0.00,-0.01,1.01,-0.18,-0.43,0.18,-11.00,27.00,29.00,53.650921,9.698243,5.60,0.04,12,3.940,0,-112,-1,8,1
215051,0.01,0.00,1.01,-0.31,-0.98,-0.18,-10.00,26.00,33.00,53.650921,9.698243,5.60,0.17,12,3.840,0,-110,-1,8,1
215151,-0.02,0.01,1.00,0.37,0.18,-0.18,-9.00,23.00,28.00,53.650921,9.698243,5.60,0.17,12,3.860,-1,-112,-1,8,1
215251,-0.00,-0.00,0.98,0.73,0.73,0.06,-10.00,26.00,34.00,53.650921,9.698243,5.60,0.22,12,3.880,0,-111,-1,8,1
215351,0.00,-0.00,1.00,-0.37,-0.98,0.18,-10.00,25.00,31.00,53.650921,9.698243,5.60,0.22,12,3.850,0,-111,-1,8,1
215451,-0.00,0.00,1.00,-0.12,0.37,-0.24,-11.00,25.00,29.00,53.650921,9.698243,5.60,0.22,12,3.840,0,-113,-1,8,1
215551,-0.00,0.01,0.99,-1.34,-0.73,-0.12,-16.00,23.00,36.00,53.650921,9.698243,5.60,0.22,12,3.920,0,-124,-1,8,1
215651,-0.00,0.00,1.00,0.24,-0.06,0.37,-10.00,23.00,30.00,53.650921,9.698243,5.60,0.22,12,3.870,0,-113,-1,8,1
215753,0.00,-0.00,1.00,-0.98,-0.61,0.31,-13.00,27.00,33.00,53.650921,9.698243,5.60,0.22,12,3.820,0,-115,-1,8,1
215853,0.01,0.00,1.00,-0.79,-1.22,-0.12,-10.00,26.00,31.00,53.650925,9.698243,5.70,0.22,12,3.890,0,-110,-1,8,1
215953,-0.02,0.01,0.95,1.83,2.08,-0.31,-9.00,25.00,35.00,53.650925,9.698243,5.70,0.04,12,3.790,-1,-111,-1,8,1
216053,-0.02,0.01,0.99,0.24,-0.12,-0.37,-16.00,27.00,33.00,53.650925,9.698243,5.80,0.04,12,3.900,-1,-121,-1,8,1
216153,0.00,0.01,0.99,0.24,0.98,-0.06,-14.00,26.00,40.00,53.650925,9.698243,5.80,0.31,12,3.820,0,-117,-1,8,1
216253,-0.00,-0.01,1.01,-0.85,-0.73,0.18,-9.00,27.00,33.00,53.650925,9.698243,5.70,0.39,12,3.930,0,-108,-1,8,1
216353,0.01,-0.00,1.00,0.98,0.73,-0.06,-9.00,29.00,31.00,53.650925,9.698243,5.70,0.39,12,3.920,0,-106,-2,8,1
216453,-0.00,0.01,0.99,0.06,0.49,-0.31,-14.00,25.00,29.00,53.650925,9.698243,5.70,0.39,12,3.910,0,-119,-1,8,1
216553,0.00,-0.00,0.99,0.18,0.12,-0.12,-15.00,25.00,30.00,53.650925,9.698243,5.70,0.39,12,3.900,0,-120,-1,8,1
216653,-0.01,0.01,0.99,0.43,0.12,0.24,-9.00,23.00,34.00,53.650925,9.698243,5.70,0.39,12,3.870,0,-111,-1,8,1
216753,-0.00,0.00,1.00,0.06,0.61,0.00,-10.00,24.00,37.00,53.650925,9.698243,5.70,0.39,12,3.920,0,-112,-1,8,1
216853,0.00,-0.00,1.00,-0.18,0.12,0.06,-13.00,22.00,32.00,53.650925,9.698242,5.70,0.39,12,3.850,0,-120,-1,8,1
216953,-0.00,0.00,0.99,0.06,-0.18,0.12,-12.00,25.00,32.00,53.650925,9.698243,5.80,0.39,12,3.930,0,-115,-1,8,1
217053,0.01,-0.01,1.00,0.18,0.98,-0.06,-11.00,26.00,32.00,53.650925,9.698243,5.80,0.39,12,3.830,0,-112,-1,8,1
217153,0.01,-0.00,1.01,0.00,0.12,-0.37,-11.00,24.00,33.00,53.650925,9.698242,5.90,0.39,12,3.870,0,-113,-1,8,1
217253,0.01,0.00,1.00,0.00,-0.49,-0.24,-12.00,25.00,26.00,53.650925,9.698242,5.80,0.39,12,3.900,0,-115,-1,8,1
217354,-0.00,-0.00,1.00,0.18,1.22,-0.06,-13.00,23.00,32.00,53.650925,9.698241,5.80,0.41,12,3.930,0,-119,-1,8,1
217454,0.01,0.01,1.00,-0.06,0.06,0.24,-10.00,23.00,29.00,53.650925,9.698241,5.80,0.41,12,3.870,0,-112,-1,8,1
217554,0.02,0.01,0.96,-0.49,-0.37,0.43,-11.00,25.00,36.00,53.650925,9.698241,5.80,0.41,12,3.940,0,-112,-1,8,1
217654,-0.00,-0.01,0.99,0.79,0.55,-0.55,-15.00,27.00,37.00,53.650925,9.698241,5.80,0.41,12,3.920,0,-119,-1,8,1
217754,-0.00,0.00,1.01,0.06,-0.24,-1.04,-16.00,26.00,33.00,53.650925,9.698241,5.80,0.41,12,3.800,0,-121,-1,8,1
217854,-0.00,-0.01,1.02,-1.22,-0.55,0.12,-14.00,26.00,31.00,53.650925,9.698241,5.80,0.41,12,3.920,0,-118,-1,8,1
217996,0.01,0.00,1.01,0.12,0.79,0.49,-13.00,25.00,30.00,53.650925,9.698241,5.80,0.41,12,3.940,0,-116,-1,8,1
218096,0.01,0.01,1.00,0.55,0.61,0.12,-9.00,26.00,27.00,53.650925,9.698241,5.80,0.41,12,3.860,0,-108,-1,8,1
218196,0.00,-0.01,0.99,-0.79,-1.16,-0.37,-15.00,27.00,33.00,53.650925,9.698241,5.80,0.41,12,3.910,0,-119,-1,8,1
218296,-0.00,0.01,1.01,0.31,0.37,-0.31,-10.00,25.00,28.00,53.650925,9.698241,5.80,0.41,12,3.920,0,-111,-1,8,1
218396,-0.00,0.01,0.99,-0.43,-0.31,0.12,-12.00,25.00,36.00,53.650925,9.698241,5.80,0.41,12,3.920,0,-115,-1,8,1
218496,-0.00,-0.01,0.98,-0.31,-0.18,0.18,-8.00,25.00,34.00,53.650925,9.698241,5.80,0.41,12,3.930,0,-107,-1,8,1
218596,0.01,0.00,1.01,0.55,0.85,-0.18,-13.00,25.00,37.00,53.650925,9.698241,5.80,0.41,12,3.930,0,-116,-1,8,1
218696,0.01,0.01,0.99,-0.61,-0.98,-0.31,-17.00,26.00,31.00,53.650925,9.698241,5.80,0.41,12,3.850,0,-122,-1,8,1
218796,-0.00,-0.00,1.00,-0.06,-0.61,-0.43,-10.00,25.00,29.00,53.650925,9.698241,5.80,0.41,12,3.920,0,-111,-1,8,1
218896,-0.01,-0.00,1.01,0.12,0.49,-0.18,-11.00,27.00,32.00,53.650925,9.698241,5.80,0.41,12,3.860,0,-112,-1,8,1
218996,0.00,0.01,1.00,0.00,0.61,0.55,-13.00,26.00,33.00,53.650925,9.698241,5.80,0.41,12,3.870,0,-116,-1,8,1
219129,0.02,-0.01,1.03,1.40,1.10,0.12,-11.00,26.00,34.00,53.650925,9.698241,5.80,0.41,12,3.840,1,-111,-1,8,1
219229,-0.01,0.01,0.97,0.18,-0.31,-0.49,-13.00,27.00,32.00,53.650925,9.698241,5.80,0.41,12,3.850,0,-116,-1,8,1
219329,0.00,-0.01,1.00,-0.06,0.37,0.18,-14.00,26.00,33.00,53.650925,9.698241,5.80,0.41,12,3.880,0,-118,-1,8,1
219429,0.01,0.00,1.01,-0.61,-0.31,0.37,-15.00,25.00,35.00,53.650925,9.698241,5.80,0.41,12,3.920,0,-120,-1,8,1
219529,0.02,0.02,1.01,1.16,0.79,-0.37,-13.00,27.00,31.00,53.650925,9.698241,5.80,0.41,12,3.91-1,0,-114,-1,8,1
219630,-0.01,-0.01,1.00,0.12,-0.31,-0.73,-10.00,25.00,28.00,53.650925,9.698242,6.10,0.41,12,3.910,0,-112,-1,8,1
219730,-0.00,-0.00,1.00,0.31,0.31,-0.06,-16.00,26.00,38.00,53.650925,9.698242,6.10,0.24,12,3.910,0,-121,-1,8,1
219830,0.00,-0.01,1.03,1.10,1.10,0.49,-10.00,25.00,30.00,53.650925,9.698242,6.10,0.19,12,3.910,0,-111,-1,8,1
219930,0.01,0.01,1.00,-0.12,0.00,0.37,-13.00,26.00,33.00,53.650925,9.698242,6.10,0.19,12,3.940,0,-116,-1,8,1
220031,0.01,-0.00,0.99,0.06,-0.31,-0.24,-12.00,25.00,35.00,53.650925,9.698242,6.10,0.09,12,3.860,0,-115,-1,8,1
220131,0.00,0.00,1.01,-0.43,-0.61,-0.55,-14.00,27.00,39.00,53.650925,9.698242,6.10,0.22,12,3.900,0,-117,-1,8,1
220231,-0.00,0.00,1.00,0.67,0.85,-0.12,-13.00,25.00,32.00,53.650925,9.698242,6.10,0.22,12,3.830,0,-117,-1,8,1
220331,-0.00,-0.00,1.00,-0.31,-0.49,0.18,-9.00,25.00,32.00,53.650925,9.698242,6.10,0.22,12,3.810,0,-109,-1,8,1
220431,0.00,0.01,0.98,-0.49,-0.61,0.12,-10.00,25.00,37.00,53.650925,9.698242,6.10,0.22,12,3.920,0,-111,-1,8,1
220531,-0.00,0.00,1.00,-0.37,-0.43,-0.31,-15.00,25.00,35.00,53.650925,9.698242,6.10,0.22,12,3.860,0,-121,-1,8,1
220631,0.00,-0.00,1.01,-0.61,-0.61,-0.06,-11.00,25.00,35.00,53.650925,9.698242,6.10,0.22,12,3.840,0,-113,-1,8,1
220731,-0.02,0.02,0.94,0.00,0.12,0.12,-10.00,25.00,33.00,53.650925,9.698242,6.10,0.22,12,3.820,-1,-112,-1,8,1
220831,0.01,0.00,1.01,0.55,0.85,-0.12,-15.00,26.00,35.00,53.650925,9.698242,6.10,0.22,12,3.950,0,-119,-1,8,1
220931,0.00,0.00,1.01,-0.24,-0.37,-0.24,-10.00,27.00,33.00,53.650925,9.698242,6.10,0.22,12,3.910,0,-110,-1,8,1
221031,-0.00,-0.00,0.99,-0.31,-0.79,-0.18,-11.00,28.00,40.00,53.650925,9.698242,6.10,0.22,12,3.820,0,-111,-1,8,1
221131,-0.00,-0.00,1.01,-0.31,-0.24,-0.06,-9.00,26.00,38.00,53.650925,9.698242,6.10,0.22,12,3.880,0,-109,-1,8,1
221231,-0.00,0.01,0.99,0.98,1.04,-0.12,-10.00,25.00,33.00,53.650925,9.698242,6.10,0.22,12,3.860,0,-111,-1,8,1
221331,0.00,0.00,1.00,0.00,0.00,-0.12,-11.00,27.00,31.00,53.650925,9.698242,6.10,0.22,12,3.850,0,-111,-1,8,1
221431,-0.00,0.00,1.00,0.06,-0.06,-0.12,-9.00,28.00,33.00,53.650925,9.698242,6.10,0.22,12,3.870,0,-107,-1,8,1
221531,0.00,-0.01,1.00,0.12,-0.06,0.06,-11.00,27.00,32.00,53.650925,9.698242,6.10,0.22,12,3.930,0,-112,-1,8,1
221643,0.00,0.01,1.00,-0.18,0.12,-0.06,-13.00,25.00,33.00,53.650925,9.698242,6.50,0.22,12,3.820,0,-117,-1,8,1
221743,0.01,0.01,1.00,0.31,0.24,0.00,-15.00,26.00,33.00,53.650925,9.698242,6.50,0.19,12,3.920,0,-119,-1,8,1
221843,0.00,-0.01,1.00,0.92,0.73,-0.12,-11.00,25.00,30.00,53.650925,9.698242,6.60,0.19,12,3.920,0,-113,-1,8,1
221943,0.00,-0.01,1.00,0.98,1.59,0.00,-16.00,25.00,34.00,53.650925,9.698242,6.60,0.19,12,3.940,0,-122,-1,8,1
222043,0.00,0.01,1.00,0.00,0.85,0.18,-16.00,25.00,36.00,53.650925,9.698242,6.60,0.26,12,3.930,0,-122,-1,8,1
222143,0.01,-0.00,1.00,0.18,0.31,0.12,-11.00,25.00,37.00,53.650925,9.698242,6.70,0.43,12,3.870,0,-113,-1,8,1
222243,0.03,-0.01,1.07,-0.49,-0.92,-0.37,-11.00,26.00,37.00,53.650925,9.698242,6.70,0.02,12,3.920,1,-111,-1,8,1
222343,-0.01,0.00,1.02,1.16,0.92,-0.73,-10.00,26.00,35.00,53.650925,9.698242,6.70,0.02,12,3.900,0,-111,-1,8,1
222472,-0.01,-0.01,1.01,-0.24,0.43,0.37,-12.00,28.00,31.00,53.650925,9.698242,6.70,0.02,12,3.930,0,-113,-1,8,1
222572,0.01,0.01,1.01,0.00,2.01,0.67,-10.00,24.00,31.00,53.650925,9.698242,6.70,0.02,12,3.810,0,-112,-1,8,1
222672,0.02,0.00,1.01,0.12,1.59,0.61,-8.00,26.00,33.00,53.650925,9.698242,6.70,0.02,12,3.960,1,-105,-1,8,1
222772,0.01,-0.01,1.00,0.00,1.22,-0.06,-10.00,27.00,28.00,53.650925,9.698242,6.70,0.02,12,3.940,0,-109,-1,8,1
222872,0.02,-0.02,1.00,-0.61,0.06,-0.67,-9.00,24.00,28.00,53.650925,9.698242,6.70,0.02,12,3.950,1,-109,-1,8,1
222972,0.01,0.03,1.01,-0.92,-3.48,-0.79,-10.00,25.00,32.00,53.650925,9.698242,6.70,0.02,12,3.88-1,0,-110,-1,8,1
223072,-0.01,0.03,1.00,-1.65,-4.27,-0.31,-12.00,27.00,31.00,53.650925,9.698242,6.70,0.02,12,3.91-1,0,-113,-1,8,1
223175,-0.01,-0.02,1.00,0.06,-0.37,0.06,-11.00,26.00,32.00,53.650925,9.698242,6.70,0.02,12,3.881,0,-114,-2,8,1
223275,0.00,-0.01,0.99,-0.55,-0.06,0.31,-10.00,24.00,33.00,53.650925,9.698242,6.70,0.02,12,3.920,0,-112,-1,8,1
223375,0.01,0.03,1.00,-0.43,-1.10,0.06,-10.00,25.00,35.00,53.650925,9.698242,6.60,0.61,12,3.94-1,0,-110,-1,8,1
223475,-0.00,0.00,1.00,0.18,-0.55,-0.43,-11.00,26.00,31.00,53.650925,9.698242,6.60,0.61,12,3.930,0,-112,-1,8,1
223575,-0.01,-0.01,0.97,-0.49,-1.10,-0.43,-10.00,27.00,32.00,53.650925,9.698242,6.60,0.61,12,3.900,0,-111,-1,8,1
223675,-0.01,0.01,1.00,-0.12,-0.61,-0.06,-10.00,25.00,31.00,53.650925,9.698242,6.60,0.61,12,3.910,0,-112,-1,8,1
223775,-0.01,0.02,0.98,0.37,0.92,0.31,-12.00,24.00,33.00,53.650925,9.698242,6.60,0.61,12,3.87-1,0,-116,-1,8,1
223875,0.01,-0.01,1.01,0.18,1.10,0.24,-9.00,26.00,26.00,53.650925,9.698242,6.60,0.61,12,3.890,0,-108,-1,8,1
223975,0.00,0.00,0.99,0.67,0.12,-0.18,-11.00,25.00,30.00,53.650925,9.698242,6.60,0.61,12,3.920,0,-113,-1,8,1
224089,-0.01,-0.01,1.01,2.26,3.17,-0.31,-9.00,24.00,38.00,53.650925,9.698242,6.60,0.61,12,3.880,0,-111,-1,8,1
224189,-0.00,-0.00,1.03,-0.37,0.06,0.24,-11.00,26.00,34.00,53.650925,9.698242,6.60,0.61,12,3.890,0,-113,-1,8,1
224289,0.03,0.01,1.01,0.12,-0.67,0.79,-12.00,26.00,31.00,53.650925,9.698242,6.60,0.61,12,3.800,1,-112,-1,8,1
224389,0.00,-0.02,1.00,-0.06,-0.67,-0.24,-14.00,25.00,33.00,53.650925,9.698242,6.60,0.61,12,3.870,0,-119,-1,8,1
224489,0.01,-0.00,1.00,0.18,0.24,-0.61,-10.00,25.00,34.00,53.650925,9.698242,6.60,0.61,12,3.880,0,-111,-1,8,1
224589,-0.01,0.02,0.95,0.43,0.79,0.12,-10.00,25.00,29.00,53.650925,9.698242,6.60,0.61,12,3.930,0,-112,-1,8,1
224726,0.02,0.01,1.01,0.06,0.49,0.61,-12.00,25.00,31.00,53.650925,9.698242,6.60,0.61,12,3.920,1,-113,-1,8,1
224826,0.01,-0.01,1.00,0.37,1.16,-0.31,-9.00,25.00,30.00,53.650925,9.698242,6.60,0.61,12,3.790,0,-109,-1,8,1
224927,0.01,0.00,1.01,-0.12,-0.98,-0.73,-15.00,25.00,35.00,53.650925,9.698242,6.60,0.61,12,3.990,0,-120,-1,8,1
225027,0.01,-0.01,1.01,0.12,0.67,-0.37,-10.00,25.00,33.00,53.650925,9.698242,6.60,0.61,12,3.870,0,-111,-1,8,1
225127,-0.01,-0.00,1.01,-0.43,0.06,-0.31,-12.00,26.00,36.00,53.650925,9.698242,6.60,0.61,12,3.920,0,-115,-1,8,1
225227,0.01,0.00,1.01,1.28,1.71,0.37,-10.00,22.00,33.00,53.650925,9.698242,6.60,0.61,12,3.870,0,-113,-1,8,1
225327,0.01,-0.01,1.03,-1.53,-1.59,0.06,-12.00,26.00,35.00,53.650925,9.698242,6.60,0.61,12,3.920,0,-114,-1,8,1
225427,0.01,0.01,0.99,0.24,0.61,-0.37,-13.00,24.00,32.00,53.650925,9.698242,6.60,0.61,12,3.900,0,-117,-1,8,1
225527,0.00,-0.00,1.02,-0.31,-0.92,-0.12,-15.00,25.00,33.00,53.650925,9.698242,6.60,0.61,12,3.930,0,-120,-1,8,1
225627,0.00,-0.00,1.01,-0.67,-0.85,0.37,-9.00,23.00,36.00,53.650925,9.698242,6.60,0.61,12,3.870,0,-111,-1,8,1
225727,0.01,0.01,0.99,0.49,0.85,-0.18,-12.00,23.00,34.00,53.650925,9.698242,6.60,0.61,12,3.860,0,-116,-1,8,1
225827,-0.01,-0.02,1.00,0.06,-0.18,-0.61,-13.00,22.00,33.00,53.650925,9.698242,6.60,0.61,12,3.900,0,-121,-1,8,1
225927,-0.00,0.01,0.99,0.43,0.12,-0.18,-12.00,24.00,32.00,53.650925,9.698242,6.60,0.61,12,3.920,0,-116,-1,8,1
226027,-0.01,0.03,1.00,1.59,2.62,0.43,-10.00,24.00,34.00,53.650925,9.698242,6.60,0.61,12,3.90-1,0,-112,-1,8,1
226129,0.03,-0.02,0.97,0.31,1.77,0.67,-9.00,24.00,35.00,53.650925,9.698242,6.60,0.61,12,3.920,1,-109,-1,8,1
226229,0.01,0.01,1.02,-0.98,-3.72,-0.49,-12.00,22.00,29.00,53.650925,9.698242,6.60,0.61,12,3.900,0,-117,-1,8,1
226329,-0.01,-0.01,0.99,-0.12,-0.43,-0.92,-12.00,24.00,32.00,53.650925,9.698242,6.60,0.61,12,3.920,0,-117,-1,8,1
226430,-0.01,0.00,1.00,-0.31,-0.73,0.24,-10.00,26.00,30.00,53.650925,9.698242,6.60,0.61,12,3.910,0,-111,-1,8,1
226530,0.02,0.00,1.03,-0.67,-1.16,0.79,-15.00,23.00,36.00,53.650925,9.698242,6.60,0.61,12,3.930,0,-122,-1,8,1
226630,0.01,-0.01,1.02,-0.24,0.00,-0.18,-12.00,24.00,31.00,53.650925,9.698242,6.60,0.61,12,3.910,0,-116,-1,8,1
226731,0.05,0.01,1.07,-1.16,-2.62,-0.55,-8.00,24.00,32.00,53.650925,9.698242,6.60,0.61,12,3.840,2,-104,-1,8,1
226831,-0.03,-0.01,1.00,0.92,-0.79,-0.85,-8.00,26.00,35.00,53.650925,9.698242,6.60,0.61,12,3.910,-1,-109,-1,8,1
226931,-0.01,0.02,1.00,-1.95,-2.26,-0.85,-13.00,27.00,33.00,53.650925,9.698242,6.60,0.61,12,3.81-1,0,-115,-1,8,1
227031,-0.01,0.01,1.01,0.61,1.22,0.79,-10.00,24.00,35.00,53.650925,9.698242,6.60,0.61,12,3.910,0,-113,-1,8,1
227131,-0.01,-0.00,0.99,-0.24,0.55,0.92,-10.00,27.00,33.00,53.650925,9.698242,6.60,0.61,12,3.850,0,-111,-1,8,1
227231,0.02,0.00,1.00,0.37,1.10,0.98,-12.00,24.00,29.00,53.650925,9.698242,6.60,0.61,12,3.810,1,-115,-2,8,1
227331,0.01,-0.00,0.99,0.24,-0.06,-0.67,-10.00,24.00,35.00,53.650925,9.698242,6.60,0.61,12,3.870,0,-112,-1,8,1
227431,0.00,0.00,0.99,-0.06,-0.49,-0.73,-12.00,23.00,33.00,53.650925,9.698242,6.60,0.61,12,3.780,0,-117,-1,8,1
227531,-0.02,0.01,1.01,-0.24,-0.12,0.06,-17.00,24.00,33.00,53.650925,9.698242,6.60,0.61,12,3.920,-1,-126,-1,8,1
227631,0.01,0.01,1.02,0.06,0.06,0.55,-15.00,26.00,31.00,53.650925,9.698242,6.10,0.61,12,3.930,0,-118,-1,8,1
227731,-0.01,-0.01,0.95,1.77,2.14,0.00,-10.00,22.00,34.00,53.650925,9.698242,6.10,0.52,12,3.930,0,-115,-2,8,1
227831,-0.02,0.00,1.00,-0.67,-2.32,-0.79,-12.00,23.00,31.00,53.650925,9.698242,6.20,0.52,12,3.750,-1,-118,-1,8,1
227931,0.01,0.01,1.01,0.12,-0.49,-0.18,-10.00,25.00,28.00,53.650925,9.698242,6.20,0.24,12,3.870,0,-111,-1,8,1
228040,0.00,0.01,1.00,-0.18,-0.55,0.79,-8.00,24.00,36.00,53.650925,9.698242,6.20,0.04,12,3.930,0,-108,-1,8,1
228140,0.01,-0.02,0.99,0.12,0.61,0.37,-11.00,24.00,31.00,53.650925,9.698242,6.20,0.22,12,3.941,0,-114,-1,8,1
228240,0.01,0.02,1.00,-0.24,0.43,-0.24,-11.00,23.00,32.00,53.650925,9.698242,6.20,0.04,12,3.91-1,0,-114,-1,8,1
228340,-0.01,0.01,0.96,0.73,1.95,0.12,-8.00,24.00,31.00,53.650925,9.698242,6.20,0.04,12,3.930,0,-108,-1,8,1
228440,0.01,-0.02,1.01,-0.18,-0.43,0.06,-16.00,25.00,32.00,53.650925,9.698242,6.30,0.26,12,3.911,0,-123,-1,8,1
228540,0.03,0.01,1.02,-0.73,0.31,-0.24,-10.00,25.00,32.00,53.650925,9.698242,6.30,0.39,12,3.920,1,-110,-1,8,1
228640,-0.01,0.01,1.00,0.06,1.53,-0.43,-16.00,25.00,35.00,53.650925,9.698241,6.30,0.33,12,3.920,0,-122,-1,8,1
228740,-0.01,0.02,0.99,0.67,0.06,0.18,-14.00,23.00,39.00,53.650925,9.698241,6.30,0.28,12,3.79-1,0,-121,-1,8,1
228840,0.01,-0.02,0.98,0.37,0.18,0.43,-11.00,24.00,36.00,53.650925,9.698241,6.30,0.28,12,3.771,0,-114,-1,8,1
228940,-0.00,-0.00,1.00,-1.59,-1.46,0.00,-12.00,23.00,33.00,53.650925,9.698241,6.30,0.22,12,3.840,0,-117,-1,8,1
229040,0.02,0.03,1.05,2.50,2.62,-0.31,-11.00,22.00,34.00,53.650925,9.698241,6.30,0.02,12,3.93-1,1,-114,-1,8,1
229147,-0.02,-0.00,0.96,1.46,1.89,-0.12,-8.00,25.00,31.00,53.650925,9.698241,6.30,0.24,12,3.910,0,-108,-1,8,1
229247,0.01,0.01,0.97,0.24,1.83,0.00,-10.00,23.00,28.00,53.650925,9.698241,6.30,0.02,12,3.920,0,-112,-2,8,1
229347,-0.00,-0.01,1.00,-0.31,-0.79,-0.06,-11.00,24.00,33.00,53.650925,9.698241,6.30,0.02,12,3.890,0,-115,-1,8,1
229447,0.00,-0.00,1.00,0.55,-0.18,-0.12,-10.00,26.00,32.00,53.650925,9.698241,6.30,0.31,12,3.930,0,-110,-1,8,1
229547,0.01,0.01,1.01,0.00,0.37,0.43,-10.00,23.00,28.00,53.650925,9.698241,6.30,0.22,12,3.920,0,-112,-1,8,1
229647,-0.01,0.01,0.95,1.34,1.53,0.24,-13.00,24.00,29.00,53.650925,9.698241,6.30,0.24,12,3.870,0,-118,-1,8,1
229747,-0.01,-0.00,0.95,0.61,0.92,-0.12,-10.00,23.00,30.00,53.650925,9.698241,6.30,0.30,12,3.950,0,-114,-1,8,1
229847,0.01,0.02,1.01,-1.10,-1.22,-0.55,-11.00,24.00,31.00,53.650925,9.698240,6.30,0.35,12,3.92-1,0,-113,-1,8,1
229948,0.00,-0.01,1.03,-1.95,-3.42,-0.31,-13.00,25.00,34.00,53.650925,9.698240,6.30,0.09,12,3.920,0,-117,-1,8,1
230048,-0.01,0.02,1.00,-1.28,-2.99,0.06,-12.00,28.00,36.00,53.650925,9.698240,6.30,0.15,12,3.95-1,0,-113,-1,8,1
230149,-0.01,-0.00,0.99,0.55,0.31,0.31,-13.00,24.00,37.00,53.650925,9.698240,6.30,0.19,12,3.950,0,-119,-1,8,1
230249,-0.00,0.01,0.99,-0.18,0.18,-0.67,-9.00,26.00,34.00,53.650925,9.698240,6.30,0.19,12,3.950,0,-108,-1,8,1
230349,-0.02,-0.02,0.99,-0.61,0.61,-0.31,-12.00,26.00,36.00,53.650925,9.698240,6.30,0.19,12,3.951,0,-116,-1,8,1
230449,-0.02,0.02,0.98,1.53,2.01,0.43,-10.00,26.00,33.00,53.650925,9.698240,6.30,0.19,12,3.93-1,-1,-112,-1,8,1
230549,-0.00,0.03,1.00,0.18,0.98,0.55,-13.00,25.00,28.00,53.650925,9.698240,6.30,0.19,12,3.79-1,0,-116,-1,8,1
230649,0.03,-0.01,1.00,0.61,-0.12,0.49,-11.00,25.00,33.00,53.650925,9.698240,6.30,0.19,12,3.920,1,-112,-1,8,1
230749,-0.01,-0.01,0.97,-0.43,-3.11,-0.67,-12.00,23.00,27.00,53.650921,9.698239,6.20,0.19,12,3.920,0,-118,-1,8,1
