timestamp,accX,accY,accZ,gyroX,gyroY,gyroZ,magX,magY,magZ,latitude,longitude,gpsAltitude,Speed,SatCount,roll,pitch,yaw,pressure,temperature,paltitude
573763,0.07,-0.07,1.00,1.40,0.55,-0.06,15.00,-2.00,42.00,53.650894,9.698418,4.80,0.04,12,3.88-4,-4,-79,-2,7,2
576122,0.07,-0.11,1.00,-0.18,-0.79,0.12,18.00,-2.00,42.00,53.650894,9.698418,4.80,0.04,12,3.85-4,-3,-79,-2,7,2
576228,0.06,-0.07,1.00,-0.18,0.49,0.24,14.00,-4.00,35.00,53.650894,9.698418,4.80,0.04,12,3.85-3,-3,-78,-3,7,2
576328,0.07,-0.09,1.00,0.49,-0.06,-0.49,16.00,-4.00,42.00,53.650894,9.698418,4.80,0.04,12,3.69-3,-3,-75,-2,7,2
576428,0.07,-0.09,1.00,0.00,-0.18,-0.18,15.00,-2.00,43.00,53.650894,9.698418,4.80,0.04,12,3.81-3,-3,-70,-2,7,2
576529,0.07,-0.07,1.00,0.06,0.18,0.55,16.00,-2.00,40.00,53.650902,9.698410,4.80,0.04,12,3.74-2,-2,-59,-2,7,2
576629,0.07,-0.10,1.00,0.12,-0.49,-0.06,13.00,-3.00,40.00,53.650902,9.698410,4.90,0.04,12,3.740,0,-36,-3,7,2
576729,0.07,-0.08,1.00,-0.12,0.37,-0.61,15.00,-1.00,46.00,53.650902,9.698410,4.90,0.13,12,3.832,2,-10,-2,7,2
576829,0.07,-0.08,1.00,0.55,0.18,0.00,17.00,-2.00,40.00,53.650902,9.698410,4.90,0.13,12,3.794,3,12,-3,7,2
576929,0.07,-0.09,1.00,0.18,-0.55,0.49,16.00,-1.00,39.00,53.650902,9.698410,4.90,0.13,12,3.726,5,25,-3,7,2
577029,0.07,-0.09,1.00,-0.24,0.24,0.00,16.00,-3.00,36.00,53.650902,9.698410,4.90,0.13,12,3.826,5,32,-3,7,2
577134,0.06,-0.08,1.00,0.06,-0.24,-0.79,18.00,-3.00,44.00,53.650902,9.698410,4.90,0.13,12,3.936,4,32,-2,7,2
577234,0.07,-0.09,1.00,0.37,0.61,0.18,18.00,-2.00,43.00,53.650902,9.698410,4.90,0.13,12,3.865,4,27,-3,7,2
577334,0.00,-0.09,1.00,0.00,-0.55,0.37,16.00,-3.00,39.00,53.650902,9.698410,4.90,0.13,12,3.855,2,25,-2,7,2
577434,0.04,-0.09,1.00,0.00,-0.06,-0.06,12.00,-1.00,41.00,53.650902,9.698410,4.90,0.13,12,3.705,2,22,-3,7,2
577534,0.07,-0.09,1.00,-0.92,0.00,-0.06,15.00,2.00,42.00,53.650902,9.698410,4.90,0.11,12,3.835,2,11,-2,7,2
577637,0.07,-0.07,0.99,0.12,-0.12,0.37,12.00,-3.00,40.00,53.650902,9.698410,4.90,0.11,12,3.854,3,17,-3,7,2
577737,0.06,-0.09,0.99,0.18,-0.12,0.12,15.00,-4.00,46.00,53.650902,9.698410,4.90,0.11,12,3.824,3,21,-3,7,2
577837,0.06,-0.08,0.99,-0.24,0.06,-0.24,17.00,-2.00,35.00,53.650902,9.698410,4.90,0.41,12,3.804,3,16,-2,7,2
577937,0.06,-0.08,1.00,0.06,0.00,-0.24,16.00,-2.00,40.00,53.650902,9.698410,4.90,0.31,12,3.804,3,15,-3,7,2
578037,0.06,-0.09,1.00,0.24,-0.18,0.31,17.00,-3.00,40.00,53.650902,9.698410,4.90,0.31,12,3.814,3,16,-3,7,2
578137,0.07,-0.09,1.00,0.00,-0.06,0.31,16.00,-4.00,34.00,53.650902,9.698410,4.90,0.31,12,3.794,3,19,-3,7,2
578294,0.06,-0.08,1.00,0.12,0.06,-0.37,17.00,-2.00,40.00,53.650902,9.698411,4.90,0.06,12,3.814,3,16,-3,7,2
578394,0.07,-0.09,1.00,0.00,0.06,0.12,17.00,0.00,41.00,53.650902,9.698411,4.90,0.06,12,3.824,3,11,-3,7,2
578497,0.07,-0.08,1.00,0.06,-0.24,0.18,18.00,0.00,42.00,53.650902,9.698411,4.90,0.30,12,3.824,4,8,-3,7,2
578597,0.07,-0.09,1.00,0.12,-0.06,-0.06,15.00,-1.00,46.00,53.650902,9.698411,4.90,0.30,12,3.854,3,13,-3,7,2
578697,0.06,-0.09,1.00,0.00,0.06,-0.31,16.00,-1.00,38.00,53.650902,9.698411,4.90,0.24,12,3.854,3,13,-2,7,2
578800,0.06,-0.08,1.00,0.06,-0.18,0.12,23.00,-1.00,38.00,53.650902,9.698411,4.90,0.24,12,3.844,3,9,-3,7,2
578900,0.04,-0.09,1.02,0.18,-0.12,0.49,19.00,1.00,40.00,53.650902,9.698411,4.90,0.22,12,3.804,2,6,-2,7,2
579000,0.06,-0.09,1.00,-0.12,0.73,0.00,11.00,-1.00,40.00,53.650902,9.698411,4.90,0.22,12,3.865,2,16,-2,7,2
579100,0.07,-0.07,1.03,-0.43,-0.79,0.12,13.00,-2.00,41.00,53.650902,9.698411,4.90,0.15,12,3.814,4,18,-2,7,2
579200,0.04,-0.06,1.00,0.00,0.73,0.24,17.00,-2.00,41.00,53.650902,9.698411,4.90,0.15,12,3.853,2,14,-3,7,2
579323,0.12,-0.03,1.03,0.85,0.18,-2.14,18.00,-3.00,40.00,53.650902,9.698411,4.90,0.19,12,3.821,6,9,-3,7,2
579423,0.08,-0.14,0.96,-0.31,-2.81,-0.55,14.00,-2.00,42.00,53.650902,9.698411,4.90,0.19,12,3.847,6,19,-2,7,2
579523,0.06,-0.09,1.02,-0.61,0.67,2.50,16.00,-1.00,37.00,53.650902,9.698411,4.90,0.07,12,3.855,2,17,-2,7,2
579623,0.05,-0.06,0.99,0.49,-1.34,0.61,18.00,-3.00,42.00,53.650902,9.698411,4.90,0.07,12,3.833,2,15,-3,7,2
579723,0.04,-0.09,0.98,0.06,-1.95,-1.53,15.00,-1.00,42.00,53.650902,9.698411,4.90,0.11,12,3.824,2,13,-2,7,2
579823,0.07,-0.10,1.00,0.37,1.77,-0.73,17.00,-2.00,43.00,53.650902,9.698411,4.90,0.11,12,3.805,2,17,-3,7,2
579923,0.08,-0.07,1.01,-0.31,-1.53,0.43,13.00,-3.00,43.00,53.650902,9.698411,4.90,0.11,12,3.804,5,21,-2,7,2
580023,0.06,-0.08,1.01,0.73,-0.37,1.10,16.00,-3.00,42.00,53.650902,9.698411,4.90,0.11,12,3.843,3,18,-2,7,2
580123,0.05,-0.11,0.99,-0.12,0.55,-0.43,15.00,-2.00,46.00,53.650902,9.698411,4.90,0.11,12,3.806,2,21,-2,7,2
580223,0.05,-0.07,0.99,-0.49,0.12,-1.28,16.00,-1.00,45.00,53.650902,9.698411,4.90,0.11,12,3.824,2,14,-3,7,2
580341,0.06,-0.09,1.02,0.37,0.18,0.67,15.00,-2.00,41.00,53.650902,9.698411,4.90,0.11,12,3.824,3,16,-2,7,2
580441,0.06,-0.08,1.00,-0.24,-0.61,0.73,16.00,-2.00,38.00,53.650902,9.698411,4.90,0.11,12,3.804,3,16,-3,7,2
580541,0.06,-0.09,1.00,0.37,0.37,-0.73,16.00,-3.00,48.00,53.650902,9.698411,4.90,0.11,12,3.834,3,20,-3,7,2
580641,0.07,-0.10,1.01,0.12,0.18,-0.24,15.00,-3.00,47.00,53.650902,9.698411,4.90,0.31,12,3.845,3,23,-2,7,2
580741,0.06,-0.08,1.00,-0.18,-0.12,0.92,14.00,-4.00,45.00,53.650902,9.698411,4.90,0.31,12,3.845,3,25,-3,7,2
580841,0.07,-0.08,0.99,0.12,-0.31,0.24,16.00,-3.00,37.00,53.650902,9.698411,4.90,0.33,12,3.834,3,17,-3,7,2
580941,0.07,-0.09,1.01,0.12,0.43,-0.92,16.00,-2.00,44.00,53.650902,9.698411,4.90,0.33,12,3.835,3,16,-3,7,2
581041,0.06,-0.10,1.00,-0.31,0.61,-0.37,15.00,-2.00,41.00,53.650902,9.698411,4.90,0.33,12,3.815,3,18,-3,7,2
581141,0.06,-0.07,1.00,-0.31,-0.31,0.73,12.00,-2.00,44.00,53.650902,9.698410,4.90,0.15,12,3.824,3,19,-3,7,2
581245,0.06,-0.09,1.00,0.49,0.06,0.12,15.00,-4.00,42.00,53.650902,9.698411,4.90,0.15,12,3.834,3,22,-3,7,2
581345,0.07,-0.10,1.00,-0.31,0.24,-1.04,17.00,-4.00,42.00,53.650902,9.698411,4.90,0.15,12,3.825,4,21,-3,7,2
581445,0.13,-0.08,1.02,-0.37,0.55,-0.12,13.00,-1.00,47.00,53.650902,9.698411,4.90,0.15,12,3.834,7,14,-3,7,2
581545,0.07,-0.08,1.00,0.06,-0.06,0.37,17.00,-3.00,44.00,53.650902,9.698410,4.90,0.33,12,3.804,4,16,-3,7,2
581645,0.02,-0.09,0.98,0.43,-1.10,0.18,16.00,-2.00,39.00,53.650902,9.698410,4.90,0.33,12,3.755,1,17,-3,7,2
581745,0.05,-0.09,1.01,-0.18,0.98,-0.37,11.00,-2.00,43.00,53.650902,9.698410,4.90,0.33,12,3.845,2,24,-3,7,2
581845,0.11,-0.08,0.99,-0.18,0.55,-0.49,20.00,-2.00,46.00,53.650902,9.698410,4.90,0.33,12,3.834,6,13,-2,7,2
581946,0.09,-0.08,1.00,-0.06,-0.79,0.55,19.00,-4.00,40.00,53.650902,9.698410,4.90,0.33,12,3.754,5,16,-3,7,2
582046,0.06,-0.08,0.99,0.31,0.00,0.37,16.00,-4.00,39.00,53.650902,9.698410,4.80,0.33,12,3.774,3,21,-3,7,2
582146,0.04,-0.09,1.00,-0.12,-0.55,-0.55,17.00,-6.00,41.00,53.650902,9.698410,4.80,0.22,12,3.845,2,27,-3,7,2
582246,0.08,-0.06,1.00,0.06,0.67,-0.43,19.00,-4.00,42.00,53.650902,9.698410,4.80,0.22,12,3.823,4,17,-2,7,2
582346,0.08,-0.10,1.01,0.98,-0.49,0.55,13.00,-4.00,37.00,53.650902,9.698410,4.80,0.22,12,3.845,5,23,-3,7,2
582446,0.06,-0.10,1.00,-0.55,-0.98,0.79,18.00,-2.00,36.00,53.650902,9.698410,4.80,0.22,12,3.725,3,15,-2,7,2
582546,0.04,-0.06,1.00,-0.12,0.85,-0.55,19.00,-2.00,40.00,53.650902,9.698410,4.80,0.22,12,3.813,2,12,-3,7,2
582651,0.06,-0.10,1.02,0.55,-0.61,-0.92,18.00,-4.00,45.00,53.650902,9.698410,4.80,0.22,12,3.815,3,20,-3,7,2
582751,0.06,-0.08,0.98,-0.67,-0.67,0.92,16.00,-2.00,43.00,53.650902,9.698410,4.80,0.22,12,3.764,3,16,-3,7,2
582851,0.06,-0.09,1.01,0.79,0.31,0.18,16.00,-3.00,40.00,53.650902,9.698410,4.80,0.22,12,3.724,3,18,-2,7,2
582951,0.05,-0.09,0.99,-0.24,0.06,-1.40,19.00,-2.00,43.00,53.650902,9.698410,4.80,0.13,12,3.835,3,15,-3,7,2
583051,0.05,-0.09,1.00,-0.37,1.16,0.00,17.00,-2.00,42.00,53.650902,9.698410,4.80,0.13,12,3.765,2,16,-2,7,2
583151,0.07,-0.07,1.01,-0.43,-1.89,1.34,16.00,-3.00,40.00,53.650902,9.698410,4.80,0.13,12,3.813,4,16,-3,7,2
583251,0.06,-0.07,1.00,1.28,-0.67,0.55,18.00,-2.00,43.00,53.650902,9.698410,4.80,0.13,12,3.833,3,12,-3,7,2
583352,0.06,-0.13,1.00,0.18,0.98,-1.22,15.00,-4.00,41.00,53.650902,9.698410,4.80,0.13,12,3.807,3,26,-3,7,2
583452,0.07,-0.07,1.00,-0.92,-0.12,-0.31,18.00,-1.00,44.00,53.650902,9.698410,4.80,0.13,12,3.734,3,12,-2,7,2
583552,0.06,-0.07,1.00,0.67,-0.31,1.28,15.00,-5.00,42.00,53.650902,9.698411,4.80,0.15,12,3.843,3,22,-2,7,2
583652,0.06,-0.12,1.00,0.18,-0.49,0.12,19.00,-4.00,43.00,53.650902,9.698411,4.80,0.15,12,3.846,3,22,-2,7,2
583757,0.07,-0.07,1.00,-0.61,0.98,-0.85,17.00,-3.00,45.00,53.650902,9.698411,4.80,0.15,12,3.694,3,17,-2,7,2
583857,0.07,-0.08,1.00,0.43,0.18,-0.43,17.00,-2.00,44.00,53.650902,9.698411,4.80,0.15,12,3.834,4,14,-2,7,2
583957,0.06,-0.10,1.00,0.12,-0.73,0.55,14.00,-3.00,44.00,53.650902,9.698411,4.80,0.15,12,3.815,3,23,-3,7,2
584057,0.06,-0.08,1.00,-0.24,0.18,0.49,20.00,-2.00,45.00,53.650902,9.698410,4.70,0.15,12,3.824,3,14,-3,7,2
584157,0.07,-0.08,1.00,0.24,0.00,-0.79,18.00,-5.00,39.00,53.650902,9.698410,4.70,0.06,12,3.714,3,20,-2,7,2
584257,0.07,-0.09,1.00,0.00,-0.06,-0.18,15.00,-2.00,42.00,53.650902,9.698410,4.70,0.06,12,3.745,4,17,-2,7,2
584362,0.07,-0.08,1.00,0.00,-0.24,0.73,15.00,-1.00,41.00,53.650902,9.698410,4.70,0.06,12,3.734,3,13,-3,7,2
584462,0.06,-0.09,1.00,0.24,-0.24,0.12,17.00,-4.00,41.00,53.650902,9.698410,4.70,0.06,12,3.834,3,20,-3,7,2
584564,0.06,-0.09,1.00,-0.18,0.43,-0.55,17.00,0.00,44.00,53.650902,9.698410,4.70,0.06,12,3.865,3,11,-2,7,2
584664,0.07,-0.07,1.01,0.12,-0.31,0.06,14.00,-1.00,38.00,53.650902,9.698410,4.70,0.06,12,3.834,4,12,-2,7,2
584764,0.07,-0.10,1.00,-0.18,-0.24,0.79,10.00,-2.00,42.00,53.650902,9.698410,4.70,0.06,12,3.775,4,24,-3,7,2
584864,0.06,-0.08,1.03,0.37,-0.06,0.18,15.00,-5.00,37.00,53.650902,9.698410,4.70,0.06,12,3.884,3,24,-2,7,2
584964,0.06,-0.10,1.00,-0.92,0.00,-1.10,10.00,-3.00,40.00,53.650902,9.698410,4.70,0.06,12,3.815,3,28,-3,7,2
585064,0.08,-0.08,1.01,-1.40,-0.55,0.06,18.00,-1.00,35.00,53.650902,9.698410,4.70,0.19,12,3.834,4,10,-2,7,2
585165,0.08,-0.08,0.99,-1.71,0.18,0.73,16.00,-4.00,46.00,53.650902,9.698410,4.70,0.09,12,3.834,4,20,-3,7,2
585265,0.05,-0.08,1.00,-0.37,-0.61,-0.12,17.00,-2.00,43.00,53.650902,9.698410,4.70,0.09,12,3.804,2,15,-2,7,2
585367,0.05,-0.07,1.01,-1.28,0.31,-0.61,16.00,-3.00,37.00,53.650902,9.698410,4.70,0.09,12,3.824,2,17,-2,7,2
585467,0.07,-0.08,0.99,-0.37,0.18,-0.06,16.00,-1.00,40.00,53.650902,9.698410,4.70,0.09,12,3.784,3,12,-2,7,2
585567,0.07,-0.07,1.00,-0.49,-0.49,0.55,14.00,-4.00,39.00,53.650902,9.698410,4.70,0.09,12,3.824,4,21,-2,7,2
585667,0.06,-0.08,1.00,-0.12,0.18,0.18,14.00,-2.00,40.00,53.650902,9.698410,4.70,0.09,12,3.834,3,16,-2,7,2
585767,0.06,-0.07,0.99,-0.49,0.12,-0.43,16.00,-1.00,42.00,53.650902,9.698410,4.70,0.09,12,3.784,3,12,-2,7,2
585867,0.06,-0.08,1.00,0.12,-0.37,-0.31,16.00,-2.00,42.00,53.650902,9.698410,4.70,0.09,12,3.844,3,15,-2,7,2
585967,0.07,-0.07,1.00,-0.37,0.24,0.31,17.00,-3.00,42.00,53.650902,9.698410,4.70,0.07,12,3.824,3,16,-2,7,2
586067,0.07,-0.07,1.00,-0.12,-0.06,0.24,16.00,-2.00,42.00,53.650902,9.698410,4.70,0.19,12,3.824,3,14,-2,7,2
586188,0.06,-0.07,1.00,0.00,0.18,-0.24,16.00,-3.00,38.00,53.650902,9.698410,4.70,0.19,12,3.813,3,16,-3,7,2
586288,0.07,-0.06,1.00,1.22,0.31,-0.24,16.00,0.00,43.00,53.650902,9.698410,4.70,0.19,12,3.803,3,7,-2,7,2
586396,0.06,-0.08,1.01,2.08,-0.79,0.00,17.00,-2.00,40.00,53.650902,9.698410,4.70,0.19,12,3.844,3,14,-2,7,2
586500,0.06,-0.08,1.01,0.55,0.24,0.24,18.00,-4.00,36.00,53.650902,9.698410,4.70,0.19,12,3.804,3,19,-3,7,2
586600,0.07,-0.09,1.00,-0.31,-0.18,-0.06,19.00,-2.00,40.00,53.650902,9.698410,4.70,0.19,12,3.785,3,14,-3,7,2
586700,0.07,-0.08,1.01,-1.34,0.00,-0.37,18.00,-2.00,39.00,53.650902,9.698410,4.70,0.19,12,3.824,3,13,-3,7,2
586800,0.06,-0.08,1.00,-2.44,0.37,0.00,15.00,-1.00,41.00,53.650902,9.698410,4.70,0.19,12,3.814,3,13,-2,7,2
586900,0.07,-0.07,1.01,-3.05,-0.49,0.24,19.00,-2.00,36.00,53.650902,9.698410,4.70,0.19,12,3.833,4,11,-3,7,2
587000,0.08,-0.07,1.01,-3.54,0.55,0.37,16.00,-3.00,43.00,53.650902,9.698410,4.70,0.19,12,3.853,4,16,-2,7,2
587125,0.08,-0.06,1.00,-5.00,-0.61,0.24,18.00,-1.00,40.00,53.650902,9.698410,4.60,0.24,12,3.763,4,8,-2,7,2
587225,0.06,-0.03,0.95,-5.55,-0.24,0.06,19.00,-3.00,42.00,53.650902,9.698410,4.60,0.24,12,3.841,3,11,-2,7,2
587325,0.06,-0.04,1.00,-5.19,0.92,0.06,18.00,-1.00,40.00,53.650902,9.698410,4.60,0.48,12,3.722,3,7,-3,7,2
587427,0.07,-0.02,1.00,-7.32,-0.37,0.06,19.00,-1.00,41.00,53.650902,9.698410,4.60,0.48,12,3.811,3,5,-2,7,2
587527,0.05,0.04,1.07,-3.91,0.49,0.06,20.00,1.00,37.00,53.650902,9.698410,4.60,0.48,12,3.83-2,2,-6,-2,7,2
587627,0.05,-0.04,1.03,0.49,0.12,-0.06,20.00,-5.00,36.00,53.650902,9.698410,4.60,0.48,12,3.662,2,15,-2,7,2
587727,0.03,-0.06,1.03,0.85,-1.34,0.00,18.00,0.00,39.00,53.650902,9.698410,4.60,0.48,12,3.733,1,6,-2,7,2
587827,0.08,0.01,1.04,-1.83,1.89,0.00,18.00,-3.00,39.00,53.650902,9.698410,4.60,0.48,12,3.800,4,7,-2,7,2
587927,0.10,-0.02,0.99,1.83,0.00,-0.06,20.00,0.00,40.00,53.650902,9.698409,4.60,0.48,12,3.780,5,1,-2,7,2
588027,0.07,-0.04,1.04,-0.43,-1.04,0.00,16.00,1.00,42.00,53.650902,9.698409,4.60,0.48,12,3.862,3,2,-2,7,2
588127,0.12,-0.01,0.97,-0.98,2.14,-0.55,20.00,-2.00,36.00,53.650902,9.698409,4.60,0.15,12,3.850,6,5,-2,7,2
588227,0.11,-0.04,0.96,-0.06,-0.18,-0.06,19.00,0.00,37.00,53.650902,9.698409,4.60,0.15,12,3.812,6,3,-2,7,2
588328,0.03,-0.03,0.99,0.73,-0.73,-0.12,20.00,-2.00,38.00,53.650902,9.698409,4.60,0.15,12,3.841,2,8,-2,7,2
588434,0.06,-0.02,0.96,0.55,1.46,-0.18,19.00,-2.00,43.00,53.650902,9.698409,4.60,0.15,12,3.810,3,7,-2,7,2
588534,0.09,-0.04,0.99,1.10,0.06,-0.24,21.00,-2.00,43.00,53.650902,9.698409,4.60,0.41,12,3.852,5,8,-2,7,2
588634,0.06,-0.02,0.98,-0.18,-1.95,-0.06,18.00,0.00,39.00,53.650902,9.698409,4.60,0.41,12,3.781,3,2,-2,7,2
588734,0.05,-0.03,0.97,0.31,0.18,0.67,15.00,-2.00,38.00,53.650902,9.698409,4.60,0.41,12,3.861,2,10,-3,7,2
588834,0.04,-0.01,0.97,1.95,1.40,0.55,16.00,-2.00,44.00,53.650902,9.698409,4.60,0.56,12,3.840,2,7,-2,7,2
588934,0.09,-0.03,0.92,1.95,-1.16,-0.12,15.00,-1.00,41.00,53.650902,9.698409,4.60,0.56,12,3.811,5,6,-2,7,2
589034,0.08,-0.03,0.94,5.25,-1.46,-1.34,18.00,-3.00,43.00,53.650902,9.698409,4.60,0.56,12,3.861,4,11,-2,7,2
589134,0.05,-0.03,0.97,5.92,0.92,-0.98,16.00,-2.00,46.00,53.650902,9.698409,4.60,0.48,12,3.801,3,9,-2,7,2
589234,0.10,-0.05,0.99,6.77,-2.08,0.55,18.00,-2.00,40.00,53.650902,9.698409,4.60,0.48,12,3.793,6,10,-2,7,2
589335,0.07,-0.08,0.99,7.87,-2.14,1.40,16.00,-3.00,43.00,53.650902,9.698409,4.60,0.48,12,3.814,3,18,-2,7,2
589435,0.01,-0.14,1.02,3.66,1.95,-0.24,13.00,-1.00,40.00,53.650902,9.698409,4.60,0.48,12,3.828,0,26,-2,7,2
589535,0.06,-0.14,1.02,-2.87,1.34,-2.32,16.00,-2.00,38.00,53.650902,9.698409,4.60,0.48,12,3.838,3,22,-3,7,2
589635,0.10,-0.05,0.99,-1.40,-1.40,0.55,16.00,-2.00,38.00,53.650902,9.698409,4.60,0.48,12,3.722,6,11,-2,7,2
589735,0.07,-0.10,0.99,0.92,0.24,1.65,15.00,-1.00,40.00,53.650902,9.698410,4.60,0.48,12,3.835,4,15,-2,7,2
589835,0.03,-0.08,1.00,0.49,-0.55,-0.24,18.00,-2.00,42.00,53.650902,9.698410,4.60,0.06,12,3.814,1,15,-2,7,2
589935,0.07,-0.09,0.99,-1.04,1.40,-2.14,16.00,-1.00,45.00,53.650902,9.698410,4.60,0.19,12,3.835,4,14,-2,7,2
590039,0.10,-0.06,1.00,0.67,-0.06,-0.79,17.00,-4.00,38.00,53.650902,9.698410,4.60,0.19,12,3.833,5,16,-2,7,2
590140,0.06,-0.08,1.01,2.32,-1.28,1.59,15.00,-2.00,39.00,53.650902,9.698410,4.60,0.19,12,3.854,3,16,-2,7,2
590240,0.05,-0.11,1.01,-0.67,0.31,0.73,17.00,-1.00,46.00,53.650902,9.698410,4.60,0.41,12,3.836,2,17,-2,7,2
590340,0.08,-0.07,1.01,0.24,0.06,-1.16,16.00,-2.00,44.00,53.650902,9.698410,4.60,0.41,12,3.823,4,13,-2,7,2
590509,0.04,-0.08,0.99,-0.12,0.73,0.85,14.00,0.00,38.00,53.650902,9.698410,4.60,0.41,12,3.824,2,11,-2,7,2
590609,0.05,-0.08,1.02,0.49,0.24,1.04,18.00,-1.00,40.00,53.650902,9.698410,4.60,0.02,12,3.824,2,11,-2,7,2
590709,0.09,-0.09,1.02,0.55,-0.67,-0.49,15.00,1.00,40.00,53.650902,9.698410,4.60,0.02,12,3.804,5,6,-2,7,2
590809,0.06,-0.10,1.00,-0.37,0.55,-1.16,17.00,-3.00,41.00,53.650902,9.698410,4.60,0.02,12,3.815,3,19,-2,7,2
590909,0.05,-0.06,1.05,-0.12,0.43,-0.24,18.00,0.00,36.00,53.650902,9.698410,4.60,0.30,12,3.843,2,5,-3,7,2
591009,0.06,-0.09,0.99,0.73,-0.61,0.98,18.00,2.00,41.00,53.650902,9.698410,4.60,0.30,12,3.835,3,4,-2,7,2
591109,0.09,-0.07,1.02,0.31,0.92,-0.06,16.00,-1.00,41.00,53.650902,9.698410,4.60,0.30,12,3.843,5,10,-2,7,2
591209,0.07,-0.10,1.00,-0.06,-0.55,-0.55,15.00,-4.00,39.00,53.650902,9.698410,4.60,0.30,12,3.835,3,23,-2,7,2
591309,0.06,-0.08,1.00,-0.73,-0.67,0.61,9.00,-2.00,39.00,53.650902,9.698410,4.60,0.30,12,3.814,3,24,-2,7,2
591409,0.06,-0.06,0.98,1.28,-0.12,1.34,13.00,-1.00,45.00,53.650902,9.698410,4.60,0.30,12,3.803,3,13,-2,7,2
591509,0.07,-0.09,0.99,1.77,-0.24,0.06,16.00,-2.00,40.00,53.650902,9.698410,4.60,0.30,12,3.795,4,16,-2,7,2
591609,0.07,-0.11,1.02,-0.61,0.24,-1.22,15.00,-2.00,39.00,53.650902,9.698410,4.60,0.30,12,3.846,4,18,-2,7,2
591709,0.11,-0.07,1.00,-1.89,0.49,-0.85,12.00,-2.00,41.00,53.650902,9.698410,4.60,0.26,12,3.833,6,15,-2,7,2
591809,0.05,-0.07,1.02,-0.49,-1.53,0.12,12.00,-2.00,41.00,53.650902,9.698410,4.60,0.26,12,3.943,3,18,-3,7,2
591909,0.02,-0.07,0.99,0.79,0.12,0.43,17.00,-2.00,39.00,53.650902,9.698410,4.60,0.26,12,3.844,1,15,-2,7,2
592009,0.05,-0.09,1.03,0.61,1.71,-0.61,16.00,-1.00,40.00,53.650902,9.698410,4.60,0.26,12,3.875,2,14,-2,7,2
592110,0.10,-0.07,1.01,-0.92,-0.24,-0.85,16.00,-1.00,39.00,53.650902,9.698410,4.60,0.26,12,3.803,5,10,-2,7,2
592210,0.10,-0.06,0.99,0.55,-0.37,1.77,16.00,-3.00,43.00,53.650902,9.698410,4.60,0.26,12,3.773,5,15,-2,7,2
592310,0.06,-0.09,1.01,0.79,-1.22,1.28,15.00,-1.00,42.00,53.650902,9.698410,4.60,0.26,12,3.835,3,14,-2,7,2
592410,0.05,-0.10,1.00,0.12,-0.92,-0.24,19.00,0.00,43.00,53.650902,9.698410,4.50,0.26,12,3.805,2,11,-2,7,2
592510,0.08,-0.10,1.01,-0.37,0.79,-0.37,16.00,-2.00,40.00,53.650902,9.698410,4.50,0.20,12,3.835,4,16,-2,7,2
592610,0.09,-0.05,1.00,-1.04,0.06,-0.37,16.00,-2.00,37.00,53.650902,9.698410,4.50,0.20,12,3.833,5,11,-3,7,2
592710,0.06,-0.09,0.99,1.59,-0.92,0.12,11.00,-2.00,40.00,53.650902,9.698410,4.50,0.20,12,3.824,3,21,-2,7,2
592810,0.04,-0.10,1.00,-0.24,0.79,-0.06,18.00,-2.00,38.00,53.650902,9.698410,4.50,0.20,12,3.695,2,16,-2,7,2
592910,0.05,-0.09,0.99,-0.31,0.85,-1.04,16.00,1.00,43.00,53.650902,9.698410,4.50,0.20,12,3.835,3,8,-2,7,2
593010,0.07,-0.08,1.00,0.06,0.12,-1.10,17.00,-2.00,38.00,53.650902,9.698410,4.50,0.20,12,3.684,3,14,-2,7,2
593110,0.08,-0.07,1.00,0.00,-0.61,0.98,16.00,-2.00,38.00,53.650902,9.698410,4.50,0.20,12,3.804,4,13,-2,7,2
593210,0.07,-0.08,1.00,0.67,-0.43,1.65,14.00,-4.00,35.00,53.650902,9.698409,4.50,0.20,12,3.844,4,22,-2,7,2
593310,0.08,-0.10,1.00,0.24,-0.37,-0.24,15.00,-2.00,35.00,53.650902,9.698410,4.50,0.07,12,3.825,4,16,-2,7,2
593410,0.05,-0.07,1.01,0.12,-0.12,-0.98,17.00,-1.00,46.00,53.650902,9.698410,4.50,0.07,12,3.774,2,12,-3,7,2
593510,0.05,-0.11,0.99,0.85,0.43,-0.06,19.00,-1.00,40.00,53.650902,9.698410,4.50,0.07,12,3.806,2,13,-2,7,2
593610,0.04,-0.11,0.99,-0.06,0.49,0.31,19.00,-1.00,38.00,53.650902,9.698410,4.50,0.07,12,3.696,2,13,-3,7,2
593711,0.07,-0.08,0.98,-0.31,1.28,-0.55,16.00,-2.00,38.00,53.650902,9.698410,4.50,0.07,12,3.754,4,15,-2,7,2
593811,0.07,-0.08,0.99,-0.67,-0.12,-0.98,16.00,-1.00,41.00,53.650902,9.698410,4.50,0.07,12,3.754,3,13,-3,7,2
593911,0.06,-0.07,1.00,-0.55,-0.55,0.18,18.00,-2.00,42.00,53.650902,9.698410,4.50,0.07,12,3.814,3,13,-2,7,2
594011,0.07,-0.08,0.99,0.43,0.49,0.55,16.00,-2.00,34.00,53.650902,9.698410,4.50,0.07,12,3.844,3,14,-2,7,2
594111,0.07,-0.08,1.01,0.24,-0.55,-0.37,13.00,-2.00,39.00,53.650902,9.698410,4.50,0.15,12,3.804,3,18,-3,7,2
594211,0.06,-0.09,1.00,0.06,0.24,-0.24,18.00,-5.00,39.00,53.650902,9.698410,4.50,0.15,12,3.794,3,22,-3,7,2
594311,0.06,-0.08,1.01,-0.18,0.18,0.06,14.00,-3.00,41.00,53.650902,9.698410,4.50,0.15,12,3.794,3,20,-3,7,2
594411,0.07,-0.08,1.00,0.18,-0.49,0.06,14.00,-4.00,42.00,53.650902,9.698410,4.50,0.15,12,3.734,3,23,-3,7,2
594511,0.07,-0.09,1.00,0.12,0.18,0.06,16.00,-2.00,41.00,53.650902,9.698410,4.50,0.15,12,3.805,3,16,-2,7,2
594611,0.07,-0.08,1.00,0.00,-0.18,-0.31,17.00,-1.00,43.00,53.650902,9.698410,4.50,0.15,12,3.754,3,12,-3,7,2
594711,0.06,-0.08,1.00,0.00,0.12,-0.06,14.00,-2.00,40.00,53.650902,9.698410,4.50,0.15,12,3.824,3,17,-2,7,2
594831,0.06,-0.08,1.00,0.06,-0.18,0.12,16.00,-2.00,42.00,53.650902,9.698410,4.50,0.04,12,3.834,3,16,-3,7,2
594931,0.06,-0.08,1.00,0.06,-0.06,-0.12,16.00,0.00,41.00,53.650902,9.698410,4.50,0.04,12,3.814,3,10,-2,7,2
595031,0.07,-0.08,1.00,0.06,0.24,-0.06,17.00,-3.00,42.00,53.650902,9.698410,4.40,0.11,12,3.784,3,17,-3,7,2
595131,0.07,-0.08,1.00,0.12,-0.37,0.00,10.00,-4.00,41.00,53.650902,9.698410,4.40,0.11,12,3.814,3,30,-3,7,2
595231,0.06,-0.08,1.00,0.00,0.00,0.18,17.00,-2.00,38.00,53.650902,9.698410,4.40,0.11,12,3.764,3,14,-3,7,2
595331,0.06,-0.08,1.00,0.06,0.06,-0.12,18.00,-2.00,39.00,53.650902,9.698410,4.40,0.11,12,3.914,3,14,-3,7,2
595431,0.06,-0.08,1.00,0.06,-0.06,-0.37,17.00,-2.00,43.00,53.650902,9.698410,4.40,0.11,12,3.744,3,15,-3,7,2
595531,0.07,-0.08,1.00,0.06,0.06,0.18,15.00,-3.00,43.00,53.650902,9.698410,4.40,0.11,12,3.744,3,19,-2,7,2
595631,0.07,-0.08,1.00,0.06,-0.24,0.12,16.00,-2.00,38.00,53.650902,9.698410,4.40,0.11,12,3.804,3,15,-2,7,2
595731,0.06,-0.08,1.00,0.12,0.00,-0.06,12.00,-3.00,39.00,53.650902,9.698410,4.40,0.11,12,3.834,3,23,-3,7,2
595831,0.07,-0.09,1.00,0.06,0.12,-0.18,14.00,-3.00,39.00,53.650902,9.698410,4.40,0.15,12,3.824,3,20,-3,7,2
595932,0.07,-0.08,1.00,0.06,-0.12,0.06,12.00,-2.00,44.00,53.650902,9.698410,4.40,0.15,12,3.764,3,20,-3,7,2
596032,0.06,-0.08,1.00,0.12,-0.06,0.18,16.00,-5.00,42.00,53.650902,9.698410,4.40,0.15,12,3.814,3,24,-2,7,2
596132,0.06,-0.09,1.00,0.06,0.00,-0.12,16.00,-4.00,39.00,53.650902,9.698410,4.40,0.15,12,3.804,3,21,-3,7,2
596247,0.07,-0.08,1.00,0.00,0.06,-0.18,12.00,-4.00,40.00,53.650902,9.698410,4.40,0.15,12,3.804,3,26,-2,7,2
596347,0.07,-0.08,1.00,0.12,-0.12,0.06,16.00,-4.00,42.00,53.650902,9.698410,4.40,0.15,12,3.824,3,21,-2,7,2
596447,0.07,-0.09,1.00,0.06,0.00,0.06,15.00,-3.00,40.00,53.650902,9.698410,4.40,0.15,12,3.824,3,19,-3,7,2
596547,0.06,-0.08,1.00,-0.12,0.06,-0.06,16.00,-1.00,46.00,53.650902,9.698410,4.40,0.15,12,3.854,3,14,-3,7,2
596647,0.07,-0.08,1.00,0.00,0.00,-0.12,13.00,-2.00,40.00,53.650902,9.698410,4.40,0.46,12,3.724,3,18,-2,7,2
596747,0.07,-0.08,1.00,0.12,-0.06,0.12,15.00,-1.00,39.00,53.650902,9.698410,4.40,0.44,12,3.834,3,13,-3,7,2
596847,0.06,-0.08,1.00,0.06,-0.12,0.18,15.00,-4.00,39.00,53.650902,9.698410,4.40,0.44,12,3.814,3,22,-3,7,2
596947,0.06,-0.08,1.00,0.00,0.06,-0.12,18.00,-3.00,36.00,53.650902,9.698410,4.40,0.44,12,3.764,3,16,-2,7,2
597059,0.07,-0.08,1.00,0.00,0.12,-0.43,23.00,-2.00,46.00,53.650902,9.698410,4.40,0.44,12,3.744,3,12,-2,7,2
597159,0.07,-0.08,1.00,0.00,-0.12,0.12,18.00,-1.00,41.00,53.650902,9.698410,4.40,0.44,12,3.814,3,11,-3,7,2
597259,0.07,-0.08,1.00,0.12,-0.12,0.31,17.00,-4.00,37.00,53.650902,9.698410,4.40,0.44,12,3.784,3,19,-2,7,2
597359,0.07,-0.08,1.00,0.12,-0.12,-0.12,14.00,-1.00,43.00,53.650902,9.698410,4.40,0.44,12,3.724,3,15,-3,7,2
597459,0.07,-0.08,1.00,-0.06,0.00,-0.31,18.00,-2.00,41.00,53.650902,9.698410,4.40,0.44,12,3.744,3,14,-2,7,2
597559,0.07,-0.08,1.00,0.06,0.00,0.12,15.00,-1.00,43.00,53.650902,9.698410,4.40,0.44,12,3.824,3,14,-3,7,2
597659,0.06,-0.08,1.00,0.06,-0.12,0.12,14.00,-2.00,38.00,53.650902,9.698410,4.40,0.30,12,3.824,3,17,-2,7,2
597759,0.06,-0.08,1.00,0.00,0.06,-0.06,15.00,-2.00,39.00,53.650902,9.698410,4.40,0.30,12,3.814,3,16,-2,7,2
597859,0.07,-0.08,1.00,0.00,-0.06,-0.24,15.00,-1.00,39.00,53.650902,9.698410,4.40,0.30,12,3.834,3,13,-3,7,2
597959,0.07,-0.08,1.00,0.12,-0.06,-0.06,16.00,-1.00,39.00,53.650902,9.698410,4.40,0.30,12,3.834,3,12,-2,7,2
598059,0.06,-0.09,1.00,0.12,-0.12,0.06,17.00,-3.00,39.00,53.650902,9.698410,4.40,0.30,12,3.774,3,17,-2,7,2
598159,0.07,-0.08,1.00,0.12,-0.06,-0.06,12.00,-4.00,45.00,53.650902,9.698410,4.40,0.30,12,3.774,3,27,-2,7,2
598259,0.07,-0.08,1.00,0.12,-0.06,-0.18,10.00,0.00,40.00,53.650902,9.698410,4.40,0.30,12,3.844,3,14,-2,7,2
598359,0.07,-0.08,1.00,0.00,0.00,0.12,18.00,-2.00,42.00,53.650902,9.698410,4.30,0.24,12,3.814,3,14,-3,7,2
598459,0.07,-0.08,1.00,0.06,-0.06,0.00,15.00,-2.00,38.00,53.650902,9.698410,4.30,0.24,12,3.824,3,16,-2,7,2
598584,0.06,-0.08,1.00,0.06,0.06,-0.12,17.00,-2.00,40.00,53.650902,9.698410,4.40,0.26,12,3.834,3,15,-2,7,2
598685,0.07,-0.08,1.00,0.00,0.06,-0.06,15.00,-2.00,38.00,53.650902,9.698410,4.40,0.26,12,3.784,3,16,-2,7,2
598785,0.07,-0.08,1.00,0.06,-0.12,0.00,15.00,-2.00,42.00,53.650902,9.698410,4.40,0.07,12,3.824,3,16,-2,7,2
598885,0.07,-0.08,1.00,0.12,0.00,0.00,13.00,-4.00,38.00,53.650902,9.698410,4.40,0.07,12,3.834,3,24,-2,7,2
598985,0.07,-0.08,1.00,0.06,-0.06,-0.18,17.00,-2.00,40.00,53.650902,9.698410,4.30,0.63,12,3.814,3,15,-2,7,2
599085,0.07,-0.08,1.00,0.06,-0.06,0.00,17.00,-2.00,42.00,53.650902,9.698410,4.30,0.63,12,3.744,3,15,-2,7,2
599185,0.07,-0.08,1.00,0.06,-0.12,0.00,14.00,-2.00,34.00,53.650902,9.698410,4.30,0.28,12,3.804,3,16,-2,7,2
599298,0.07,-0.08,1.00,0.06,-0.06,0.00,12.00,1.00,41.00,53.650902,9.698410,4.30,0.28,12,3.814,3,9,-2,7,2
599400,0.07,-0.08,1.00,0.06,0.00,-0.18,17.00,-1.00,41.00,53.650902,9.698410,4.30,0.46,12,3.814,3,12,-2,7,2
599500,0.07,-0.08,1.00,0.06,-0.06,0.00,16.00,-1.00,36.00,53.650902,9.698410,4.30,0.46,12,3.714,3,11,-2,7,2
599600,0.07,-0.08,1.00,0.06,-0.12,0.00,14.00,-3.00,39.00,53.650902,9.698410,4.30,0.46,12,3.684,3,20,-2,7,2
599700,0.07,-0.08,1.00,0.06,-0.12,-0.06,17.00,-3.00,41.00,53.650902,9.698410,4.30,0.20,12,3.834,3,17,-3,7,2
599800,0.07,-0.08,1.00,0.00,0.00,-0.06,17.00,-3.00,37.00,53.650902,9.698410,4.30,0.20,12,3.714,3,17,-2,7,2
599900,0.06,-0.08,1.00,0.12,0.00,-0.06,12.00,-1.00,38.00,53.650902,9.698410,4.30,0.20,12,3.794,3,15,-2,7,2
600000,0.06,-0.08,1.00,0.06,-0.18,0.00,15.00,-3.00,38.00,53.650902,9.698410,4.30,0.20,12,3.824,3,19,-2,7,2
600100,0.06,-0.08,1.00,0.06,-0.12,-0.06,16.00,-2.00,40.00,53.650902,9.698410,4.30,0.20,12,3.854,3,15,-2,7,2
600200,0.07,-0.08,1.00,0.06,-0.06,0.00,13.00,-2.00,40.00,53.650902,9.698410,4.30,0.20,12,3.834,3,18,-2,7,2
600300,0.07,-0.08,1.00,0.00,0.00,0.00,18.00,-1.00,43.00,53.650902,9.698410,4.30,0.20,12,3.784,3,12,-3,7,2
600400,0.07,-0.08,1.00,0.06,0.00,-0.06,17.00,-3.00,41.00,53.650902,9.698410,4.30,0.46,12,3.704,3,17,-3,7,2
600500,0.07,-0.08,1.00,0.12,-0.06,-0.18,17.00,-2.00,39.00,53.650902,9.698410,4.30,0.46,12,3.784,3,14,-2,7,2
600610,0.07,-0.08,1.00,0.12,-0.06,0.00,17.00,-4.00,40.00,53.650902,9.698410,4.30,0.46,12,3.714,3,20,-3,7,2
600710,0.07,-0.08,1.00,0.12,-0.06,0.00,10.00,-2.00,44.00,53.650902,9.698410,4.30,0.28,12,3.764,3,23,-2,7,2
600810,0.07,-0.08,1.00,0.12,-0.06,-0.12,13.00,-2.00,37.00,53.650902,9.698410,4.30,0.28,12,3.824,3,17,-3,7,2
600910,0.07,-0.08,1.00,0.00,-0.06,-0.12,17.00,-2.00,41.00,53.650902,9.698410,4.30,0.15,12,3.764,3,15,-3,7,2
601010,0.06,-0.08,1.00,0.06,-0.06,-0.06,14.00,-2.00,40.00,53.650902,9.698410,4.30,0.15,12,3.784,3,17,-3,7,2
601110,0.07,-0.09,1.00,0.06,-0.06,0.00,15.00,-3.00,36.00,53.650902,9.698410,4.30,0.06,12,3.824,3,19,-2,7,2
601210,0.07,-0.08,1.00,0.00,-0.12,-0.06,15.00,-2.00,41.00,53.650902,9.698410,4.30,0.06,12,3.824,3,16,-2,7,2
601310,0.07,-0.08,1.00,0.12,0.00,-0.06,16.00,-3.00,34.00,53.650902,9.698410,4.30,0.09,12,3.824,3,17,-3,7,2
601411,0.07,-0.08,1.00,0.06,-0.12,0.00,16.00,-5.00,42.00,53.650902,9.698410,4.30,0.09,12,3.764,3,24,-3,7,2
601517,0.07,-0.08,1.00,0.12,0.06,0.12,17.00,-2.00,39.00,53.650902,9.698410,4.30,0.15,12,3.734,3,14,-2,7,2
601618,0.07,-0.08,1.00,0.00,-0.06,-0.06,17.00,-2.00,39.00,53.650902,9.698410,4.30,0.15,12,3.814,3,14,-2,7,2
601718,0.07,-0.08,1.00,0.06,-0.12,-0.12,12.00,-3.00,45.00,53.650902,9.698410,4.30,0.13,12,3.844,3,24,-3,7,2
601821,0.06,-0.08,1.00,0.00,0.00,0.00,16.00,-2.00,40.00,53.650902,9.698410,4.30,0.13,12,3.834,3,15,-2,7,2
601922,0.07,-0.08,1.00,0.00,-0.06,-0.12,16.00,-2.00,40.00,53.650902,9.698410,4.30,0.07,12,3.804,3,15,-3,7,2
602022,0.07,-0.08,1.00,0.00,0.12,-0.12,19.00,-2.00,43.00,53.650902,9.698410,4.30,0.07,12,3.814,3,14,-2,7,2
602122,0.07,-0.08,1.00,0.12,-0.18,-0.06,18.00,-2.00,42.00,53.650902,9.698410,4.30,0.07,12,3.814,3,14,-3,7,2
602222,0.06,-0.08,1.00,0.12,-0.06,0.12,18.00,-2.00,42.00,53.650902,9.698410,4.30,0.07,12,3.834,3,14,-3,7,2
602322,0.07,-0.08,1.00,0.06,-0.06,0.00,18.00,-4.00,43.00,53.650902,9.698410,4.30,0.28,12,3.774,3,19,-3,7,2
602422,0.07,-0.08,1.00,0.06,0.00,-0.12,16.00,-2.00,38.00,53.650902,9.698410,4.30,0.28,12,3.844,3,15,-2,7,2
602522,0.07,-0.08,1.00,0.12,0.06,0.06,16.00,-2.00,38.00,53.650902,9.698410,4.30,0.28,12,3.814,3,15,-3,7,2
602713,0.06,-0.08,1.00,0.06,0.00,-0.18,19.00,-2.00,43.00,53.650902,9.698410,4.30,0.28,12,3.764,3,14,-3,7,2
602813,0.07,-0.08,1.00,0.06,-0.12,-0.18,16.00,-2.00,37.00,53.650902,9.698410,4.30,0.13,12,3.764,3,15,-3,7,2
602913,0.07,-0.08,1.00,0.00,-0.06,0.06,12.00,-2.00,42.00,53.650902,9.698410,4.30,0.13,12,3.784,3,20,-2,7,2
603013,0.07,-0.08,1.00,0.06,-0.18,0.06,17.00,-3.00,41.00,53.650902,9.698410,4.30,0.13,12,3.664,3,17,-3,7,2
603113,0.06,-0.08,1.00,0.06,-0.06,-0.12,10.00,-3.00,35.00,53.650902,9.698410,4.30,0.13,12,3.834,3,25,-3,7,2
603213,0.07,-0.08,1.00,0.12,0.00,-0.06,13.00,-3.00,41.00,53.650902,9.698410,4.30,0.13,12,3.824,3,21,-3,7,2
603313,0.07,-0.08,1.00,0.12,-0.24,0.18,15.00,-3.00,36.00,53.650902,9.698410,4.30,0.13,12,3.784,3,18,-2,7,2
603413,0.06,-0.09,1.00,0.00,0.00,0.06,17.00,-2.00,41.00,53.650902,9.698410,4.30,0.13,12,3.824,3,15,-2,7,2
603513,0.07,-0.08,1.00,0.12,0.06,-0.24,13.00,-2.00,34.00,53.650902,9.698409,4.20,0.13,12,3.814,3,16,-2,7,2
603613,0.06,-0.08,1.02,0.79,-0.31,-0.18,15.00,0.00,39.00,53.650902,9.698409,4.20,0.22,12,3.744,3,9,-3,7,2
603713,0.04,-0.09,1.00,0.67,0.55,0.18,16.00,-5.00,34.00,53.650902,9.698409,4.20,0.22,12,3.785,2,24,-2,7,2
603813,0.07,-0.08,1.01,0.24,1.34,-0.73,16.00,-5.00,34.00,53.650902,9.698409,4.20,0.22,12,3.764,3,22,-3,7,2
603913,0.07,-0.08,1.00,1.10,1.34,-2.20,16.00,-1.00,38.00,53.650902,9.698409,4.20,0.22,12,3.814,3,11,-3,7,2
604013,0.07,-0.10,1.00,0.92,1.22,-1.10,18.00,-1.00,38.00,53.650902,9.698409,4.20,0.22,12,3.795,4,12,-2,7,2
604113,0.09,-0.10,1.00,-0.55,-1.65,1.28,16.00,-2.00,38.00,53.650902,9.698409,4.20,0.22,12,3.845,4,16,-3,7,2
604213,0.06,-0.05,0.99,-0.49,-2.62,2.69,15.00,-4.00,34.00,53.650902,9.698409,4.20,0.22,12,3.823,3,18,-2,7,2
604313,0.05,-0.09,0.99,1.59,1.28,-0.67,12.00,-4.00,40.00,53.650902,9.698409,4.20,0.22,12,3.815,2,28,-2,7,2
604413,0.07,-0.14,0.99,-0.37,0.55,-2.69,20.00,-2.00,43.00,53.650902,9.698409,4.20,0.30,12,3.867,3,18,-3,7,2
604513,0.07,-0.05,1.00,-0.67,-0.85,0.49,18.00,-2.00,34.00,53.650902,9.698409,4.20,0.30,12,3.792,3,10,-2,7,2
604613,0.06,-0.09,0.99,1.46,0.67,1.77,13.00,-2.00,40.00,53.650902,9.698409,4.20,0.30,12,3.845,3,20,-2,7,2
604713,0.07,-0.10,1.01,-0.55,-0.92,-1.40,16.00,-4.00,39.00,53.650902,9.698409,4.20,0.30,12,3.855,4,22,-3,7,2
604826,0.07,-0.08,1.00,0.43,2.75,-1.28,16.00,-4.00,40.00,53.650902,9.698409,4.20,0.30,12,3.804,3,20,-3,7,2
604926,0.06,-0.10,1.06,0.18,-1.95,0.00,16.00,-3.00,40.00,53.650902,9.698409,4.20,0.30,12,3.815,3,19,-2,7,2
605026,0.05,-0.09,0.99,0.43,0.18,2.50,15.00,-4.00,38.00,53.650902,9.698409,4.20,0.30,12,3.825,2,23,-2,7,2
605126,0.10,-0.12,1.02,0.00,1.10,-0.61,16.00,-1.00,41.00,53.650902,9.698409,4.20,0.30,12,3.836,5,15,-3,7,2
605226,0.09,-0.09,1.00,-1.28,-1.89,-2.01,16.00,-5.00,46.00,53.650902,9.698409,4.20,0.30,12,3.815,5,24,-2,7,2
605326,0.07,-0.08,1.00,-0.98,0.55,2.81,16.00,-4.00,39.00,53.650902,9.698409,4.20,0.02,12,3.764,3,20,-3,7,2
605426,0.03,-0.07,1.00,0.49,-2.32,1.65,16.00,-2.00,41.00,53.650902,9.698409,4.20,0.02,12,3.843,1,15,-2,7,2
605526,0.06,-0.10,1.01,0.61,-0.37,-1.77,16.00,-2.00,35.00,53.650902,9.698409,4.20,0.02,12,3.785,3,16,-3,7,2
605626,0.09,-0.09,1.01,-0.61,2.14,-1.71,16.00,-2.00,36.00,53.650902,9.698409,4.20,0.02,12,3.835,5,15,-3,7,2
605726,0.08,-0.07,1.00,0.06,-1.16,0.00,15.00,-4.00,36.00,53.650902,9.698409,4.20,0.02,12,3.763,4,19,-3,7,2
605826,0.04,-0.11,1.00,0.49,0.00,1.59,15.00,-3.00,35.00,53.650902,9.698409,4.20,0.02,12,3.796,2,22,-3,7,2
605926,0.08,-0.08,1.00,-0.85,-0.85,-0.24,14.00,-3.00,41.00,53.650902,9.698409,4.20,0.02,12,3.754,4,20,-3,7,2
606026,0.08,-0.07,1.00,0.55,0.79,-0.85,10.00,-1.00,38.00,53.650902,9.698409,4.20,0.02,12,3.833,4,15,-3,7,2
606126,0.06,-0.12,0.98,0.24,-0.43,0.18,16.00,0.00,36.00,53.650902,9.698408,4.20,0.22,12,3.836,3,12,-3,7,2
606226,0.04,-0.06,1.01,-0.37,-1.53,1.28,16.00,-2.00,42.00,53.650902,9.698408,4.20,0.22,12,3.783,2,13,-3,7,2
606335,0.06,-0.11,1.01,0.61,0.79,0.67,15.00,-1.00,40.00,53.650902,9.698408,4.20,0.22,12,3.826,3,16,-3,7,2
606438,0.05,-0.08,1.00,-0.85,-0.18,-0.55,11.00,-2.00,38.00,53.650902,9.698408,4.20,0.22,12,3.804,3,21,-2,7,2
606538,0.07,-0.07,1.00,0.37,0.18,0.00,11.00,-2.00,35.00,53.650902,9.698408,4.20,0.22,12,3.784,4,18,-3,7,2
606638,0.07,-0.10,1.01,0.00,-0.24,0.43,14.00,-1.00,37.00,53.650902,9.698408,4.20,0.22,12,3.725,4,15,-2,7,2
606747,0.06,-0.09,1.00,-0.24,0.24,-0.31,18.00,0.00,39.00,53.650902,9.698408,4.20,0.22,12,3.835,3,9,-2,7,2
606847,0.06,-0.07,1.00,-0.12,0.06,-0.55,16.00,-2.00,40.00,53.650902,9.698408,4.20,0.22,12,3.814,3,14,-2,7,2
606947,0.07,-0.09,1.00,0.55,-0.43,0.00,16.00,-3.00,45.00,53.650902,9.698408,4.20,0.22,12,3.805,3,20,-3,7,2
607134,0.06,-0.09,1.00,0.12,0.00,-0.24,15.00,-2.00,38.00,53.650902,9.698408,4.20,0.04,12,3.834,3,16,-3,7,2
607234,0.07,-0.10,1.00,0.12,0.00,-0.43,14.00,-2.00,40.00,53.650902,9.698408,4.20,0.04,12,3.705,4,18,-2,7,2
607334,0.07,-0.09,1.00,-0.31,-0.18,0.43,15.00,-1.00,41.00,53.650902,9.698408,4.20,0.04,12,3.745,3,14,-3,7,2
607434,0.06,-0.07,1.01,0.37,-0.12,0.00,15.00,-3.00,41.00,53.650902,9.698408,4.20,0.04,12,3.833,3,18,-3,7,2
607534,0.05,-0.11,0.99,0.31,1.16,-0.92,17.00,-2.00,42.00,53.650902,9.698408,4.20,0.04,12,3.836,3,18,-3,7,2
607635,0.11,-0.08,1.00,-0.12,0.00,-0.85,12.00,-2.00,36.00,53.650902,9.698408,4.20,0.04,12,3.674,6,16,-2,7,2
607735,0.08,-0.10,1.00,0.37,-1.28,1.10,12.00,-1.00,42.00,53.650902,9.698408,4.20,0.04,12,3.705,4,18,-3,7,2
607836,0.04,-0.09,1.00,-0.31,-0.06,1.16,13.00,-1.00,40.00,53.650902,9.698408,4.20,0.11,12,3.684,2,16,-3,7,2
607936,0.06,-0.08,0.99,0.06,-0.06,-1.28,17.00,-3.00,44.00,53.650902,9.698408,4.20,0.15,12,3.844,3,18,-3,7,2
608036,0.08,-0.09,0.99,0.18,0.67,-1.04,12.00,-1.00,41.00,53.650902,9.698408,4.20,0.15,12,3.805,4,17,-3,7,2
608136,0.07,-0.09,1.00,-0.18,-0.55,0.85,15.00,-3.00,36.00,53.650902,9.698408,4.20,0.15,12,3.785,4,19,-3,7,2
608236,0.05,-0.08,1.00,0.18,-0.49,0.85,16.00,-4.00,36.00,53.650902,9.698408,4.20,0.15,12,3.834,3,20,-3,7,2
608336,0.06,-0.09,1.00,0.24,0.31,-0.73,16.00,-1.00,39.00,53.650902,9.698408,4.20,0.15,12,3.815,3,14,-2,7,2
608436,0.06,-0.09,1.00,-0.24,0.31,-0.92,15.00,-2.00,34.00,53.650902,9.698408,4.20,0.15,12,3.765,3,16,-2,7,2
608536,0.06,-0.08,1.00,-0.18,0.18,0.73,16.00,-2.00,36.00,53.650902,9.698408,4.20,0.15,12,3.724,3,14,-3,7,2
608636,0.06,-0.09,1.00,0.43,-0.55,0.55,16.00,-1.00,35.00,53.650902,9.698408,4.20,0.15,12,3.764,3,12,-3,7,2
608736,0.06,-0.10,1.00,0.00,0.12,-0.73,15.00,-3.00,40.00,53.650902,9.698408,4.20,0.26,12,3.815,3,21,-3,7,2
608836,0.07,-0.08,1.00,-0.31,0.55,-0.24,15.00,-3.00,38.00,53.650902,9.698408,4.20,0.19,12,3.754,3,18,-2,7,2
608936,0.07,-0.08,1.00,0.24,-0.67,0.43,16.00,-2.00,36.00,53.650902,9.698408,4.20,0.19,12,3.814,3,14,-2,7,2
609036,0.06,-0.10,1.00,0.12,0.06,0.31,15.00,-4.00,44.00,53.650902,9.698408,4.20,0.19,12,3.775,3,24,-2,7,2
609136,0.06,-0.08,1.00,-0.12,0.12,-0.73,10.00,-2.00,40.00,53.650902,9.698408,4.20,0.19,12,3.824,3,22,-3,7,2
609236,0.07,-0.09,1.00,0.18,0.12,-0.18,16.00,-3.00,36.00,53.650902,9.698408,4.20,0.19,12,3.794,3,17,-3,7,2
609336,0.07,-0.09,1.00,-0.06,-0.18,0.79,13.00,-2.00,41.00,53.650902,9.698408,4.20,0.19,12,3.815,4,19,-2,7,2
609440,0.07,-0.07,1.00,0.06,-0.24,0.00,18.00,-1.00,41.00,53.650902,9.698408,4.20,0.19,12,3.834,4,10,-3,7,2
609540,0.07,-0.09,1.00,0.43,0.00,-0.79,15.00,-1.00,38.00,53.650902,9.698408,4.10,0.13,12,3.815,3,13,-3,7,2
609640,0.07,-0.10,1.00,-0.18,-0.43,0.06,17.00,-4.00,37.00,53.650902,9.698408,4.10,0.13,12,3.755,3,21,-2,7,2
609740,0.06,-0.07,1.00,-0.06,-0.24,0.79,19.00,-2.00,38.00,53.650902,9.698408,4.10,0.13,12,3.773,3,12,-3,7,2
609840,0.05,-0.10,1.00,0.49,-0.18,-0.18,16.00,-2.00,43.00,53.650902,9.698408,4.10,0.13,12,3.735,3,18,-2,7,2
609940,0.06,-0.09,1.00,-0.43,0.37,-0.43,15.00,-1.00,38.00,53.650902,9.698408,4.10,0.13,12,3.815,3,14,-2,7,2
610040,0.07,-0.07,1.00,-0.12,0.06,0.37,15.00,-3.00,44.00,53.650902,9.698408,4.20,0.13,12,3.794,4,18,-3,7,2
610140,0.07,-0.09,1.00,0.55,-0.85,0.43,15.00,-2.00,36.00,53.650902,9.698408,4.20,0.19,12,3.795,3,16,-3,7,2
610240,0.06,-0.09,1.00,0.24,0.31,-0.18,18.00,-5.00,41.00,53.650902,9.698408,4.20,0.19,12,3.855,3,23,-3,7,2
610340,0.07,-0.09,1.00,-0.06,-0.24,-0.61,15.00,-3.00,44.00,53.650902,9.698408,4.10,0.09,12,3.845,3,20,-3,7,2
610471,0.06,-0.09,1.00,0.06,0.00,0.73,15.00,-2.00,40.00,53.650902,9.698408,4.10,0.09,12,3.805,3,17,-2,7,2
610571,0.06,-0.08,1.01,-0.06,-0.06,-0.06,17.00,-2.00,38.00,53.650902,9.698408,4.20,0.02,12,3.804,3,14,-3,7,2
610671,0.06,-0.09,1.00,0.06,1.10,-0.73,9.00,-2.00,40.00,53.650902,9.698408,4.20,0.02,12,3.705,3,26,-3,7,2
610771,0.07,-0.09,1.00,-0.49,0.37,-0.31,13.00,-3.00,39.00,53.650902,9.698408,4.20,0.02,12,3.814,3,21,-3,7,2
610889,0.07,-0.08,1.00,-0.12,-0.37,0.85,20.00,-4.00,39.00,53.650902,9.698408,4.20,0.20,12,3.824,3,17,-3,7,2
610989,0.06,-0.09,1.00,0.12,0.31,0.18,15.00,-4.00,37.00,53.650902,9.698408,4.20,0.20,12,3.825,3,22,-2,7,2
611089,0.05,-0.06,1.01,0.85,-0.67,-1.10,15.00,-2.00,40.00,53.650902,9.698408,4.20,0.20,12,3.823,2,14,-3,7,2
611189,0.05,-0.12,0.99,-0.49,0.06,0.24,15.00,-5.00,41.00,53.650902,9.698408,4.20,0.33,12,3.837,2,30,-2,7,2
611289,0.10,-0.09,1.00,-2.20,0.73,1.89,18.00,-4.00,41.00,53.650902,9.698408,4.20,0.33,12,3.845,5,18,-2,7,2
611389,0.08,-0.08,1.00,-3.17,-0.73,0.49,15.00,-2.00,38.00,53.650902,9.698408,4.20,0.26,12,3.844,4,15,-2,7,2
611489,0.05,-0.08,1.01,-4.58,0.49,-0.85,12.00,-2.00,42.00,53.650902,9.698408,4.20,0.26,12,3.794,3,20,-2,7,2
611595,0.06,-0.06,1.00,-6.47,-0.67,0.06,16.00,-4.00,42.00,53.650902,9.698408,4.20,0.26,12,3.743,3,19,-2,7,2
611695,0.08,-0.05,0.98,-6.71,-0.43,0.73,16.00,-4.00,34.00,53.650902,9.698408,4.20,0.24,12,3.823,4,16,-2,7,2
611795,0.08,-0.01,1.00,-4.58,0.55,0.85,17.00,-2.00,38.00,53.650902,9.698408,4.20,0.24,12,3.820,4,6,-3,7,2
611895,0.04,-0.01,0.98,-1.83,-0.18,-0.85,19.00,-2.00,37.00,53.650902,9.698408,4.20,0.24,12,3.830,2,6,-2,7,2
611995,0.04,0.01,0.96,8.06,-0.85,-1.89,18.00,-1.00,36.00,53.650902,9.698408,4.20,0.24,12,3.760,2,1,-2,7,2
612095,0.08,-0.03,1.01,13.18,1.34,-0.55,17.00,-1.00,39.00,53.650902,9.698408,4.20,0.46,12,3.761,4,6,-2,7,2
612195,0.09,-0.10,1.06,15.26,0.00,1.16,10.00,-1.00,38.00,53.650902,9.698408,4.20,0.46,12,3.825,4,18,-3,7,2
612295,0.05,-0.24,1.07,-1.65,-2.08,-0.06,14.00,-2.00,37.00,53.650902,9.698408,4.20,0.46,12,3.8313,2,33,-3,7,2
612395,0.03,-0.06,0.95,-3.72,2.81,-0.73,16.00,-4.00,40.00,53.650902,9.698408,4.20,0.46,12,3.703,1,20,-3,7,2
612495,0.08,0.01,1.01,0.79,0.37,-0.73,14.00,-1.00,40.00,53.650902,9.698408,4.20,0.46,12,3.830,4,2,-3,7,2
612595,0.06,-0.10,1.03,4.15,-3.17,0.18,13.00,-3.00,38.00,53.650902,9.698408,4.20,0.46,12,3.845,3,23,-3,7,2
612695,0.03,-0.17,1.03,0.06,1.46,0.98,16.00,-5.00,38.00,53.650902,9.698408,4.20,0.07,12,3.759,1,33,-3,7,2
612795,0.03,-0.05,1.02,-3.30,0.43,-0.85,14.00,-2.00,41.00,53.650902,9.698408,4.20,0.07,12,3.823,1,15,-2,7,2
612897,0.08,-0.05,1.01,1.89,-0.12,-0.31,17.00,-2.00,39.00,53.650902,9.698408,4.20,0.07,12,3.723,4,11,-2,7,2
612997,0.09,-0.13,1.00,0.06,-0.12,1.34,15.00,-1.00,34.00,53.650902,9.698408,4.20,0.07,12,3.827,5,16,-3,7,2
613097,0.06,-0.07,0.99,-0.24,-0.98,-0.73,16.00,-4.00,42.00,53.650902,9.698408,4.20,0.07,12,3.794,3,20,-2,7,2
613197,0.06,-0.10,1.00,0.43,1.59,-0.98,14.00,-2.00,40.00,53.650902,9.698408,4.20,0.07,12,3.815,3,19,-2,7,2
613297,0.07,-0.10,1.00,-0.37,-0.18,-0.31,14.00,-4.00,39.00,53.650902,9.698408,4.20,0.07,12,3.795,4,24,-2,7,2
613397,0.06,-0.08,1.00,0.06,-0.79,1.22,13.00,-3.00,40.00,53.650902,9.698408,4.10,0.07,12,3.804,3,21,-2,7,2
613497,0.06,-0.09,1.01,0.24,0.31,0.61,15.00,-3.00,37.00,53.650902,9.698408,4.10,0.30,12,3.825,3,20,-2,7,2
613597,0.06,-0.10,1.00,-0.12,0.00,-1.59,12.00,-1.00,42.00,53.650902,9.698408,4.10,0.30,12,3.745,3,19,-3,7,2
613697,0.07,-0.08,1.00,-0.12,0.43,-0.31,13.00,-3.00,42.00,53.650902,9.698408,4.10,0.30,12,3.804,4,21,-3,7,2
613806,0.07,-0.09,1.00,0.73,-1.10,0.73,16.00,-3.00,43.00,53.650902,9.698408,4.10,0.30,12,3.815,4,19,-2,7,2
613906,0.06,-0.10,0.99,-0.24,-0.06,0.06,8.00,-3.00,41.00,53.650902,9.698408,4.10,0.30,12,3.825,3,33,-3,7,2
614006,0.06,-0.09,1.00,0.06,0.67,-0.55,9.00,-3.00,43.00,53.650902,9.698408,4.10,0.30,12,3.824,3,29,-2,7,2
614106,0.06,-0.09,1.00,0.06,-0.43,-0.55,13.00,-3.00,42.00,53.650902,9.698408,4.10,0.30,12,3.834,3,22,-2,7,2
614206,0.07,-0.10,1.00,0.43,-0.24,0.43,15.00,-2.00,40.00,53.650902,9.698408,4.10,0.30,12,3.825,3,18,-3,7,2
614306,0.07,-0.08,0.99,-0.37,0.61,0.37,15.00,-3.00,41.00,53.650902,9.698408,4.10,0.30,12,3.794,4,19,-2,7,2
614406,0.08,-0.06,1.00,0.55,-0.49,-0.43,17.00,-3.00,36.00,53.650902,9.698408,4.10,0.30,12,3.833,4,14,-2,7,2
614506,0.06,-0.11,1.00,0.43,-0.61,0.06,11.00,-3.00,42.00,53.650902,9.698408,4.10,0.07,12,3.756,3,28,-3,7,2
614606,0.08,-0.10,0.99,-0.49,0.85,0.00,13.00,-2.00,39.00,53.650902,9.698408,4.10,0.07,12,3.815,4,19,-3,7,2
614708,0.08,-0.06,0.99,0.00,-0.79,-0.49,13.00,-3.00,38.00,53.650902,9.698408,4.10,0.07,12,3.753,4,18,-3,7,2
614808,0.08,-0.11,1.01,0.67,0.37,0.12,15.00,-4.00,34.00,53.650902,9.698408,4.10,0.07,12,3.886,4,23,-3,7,2
614951,0.07,-0.09,1.00,-0.06,-0.43,0.18,13.00,-3.00,40.00,53.650902,9.698408,4.10,0.07,12,3.814,3,22,-2,7,2
615051,0.06,-0.09,1.00,0.00,0.24,0.06,19.00,-2.00,41.00,53.650902,9.698408,4.10,0.07,12,3.825,3,14,-2,7,2
615151,0.06,-0.09,1.00,0.31,0.12,-0.37,15.00,-2.00,43.00,53.650902,9.698408,4.10,0.07,12,3.815,3,18,-3,7,2
615251,0.08,-0.09,1.00,-0.06,-0.37,0.18,13.00,-1.00,41.00,53.650902,9.698408,4.10,0.07,12,3.855,4,16,-2,7,2
615351,0.08,-0.08,1.01,0.00,-0.24,0.67,13.00,-2.00,44.00,53.650902,9.698408,4.10,0.07,12,3.824,4,17,-2,7,2
615451,0.06,-0.09,1.00,0.31,-0.67,-0.31,13.00,-2.00,39.00,53.650902,9.698408,4.10,0.07,12,3.735,3,19,-3,7,2
615551,0.05,-0.09,1.00,0.06,0.49,-0.43,10.00,-4.00,42.00,53.650902,9.698408,4.10,0.07,12,3.785,3,32,-3,7,2
615651,0.07,-0.08,1.00,-0.24,0.37,-0.24,10.00,-1.00,42.00,53.650902,9.698408,4.10,0.07,12,3.734,3,18,-3,7,2
615751,0.06,-0.08,1.01,0.37,-0.55,0.49,11.00,-2.00,36.00,53.650902,9.698408,4.20,0.09,12,3.834,3,19,-3,7,2
615851,0.06,-0.10,1.01,-0.31,0.61,0.24,14.00,-2.00,40.00,53.650902,9.698408,4.20,0.17,12,3.805,3,19,-3,7,2
615951,0.07,-0.09,0.99,-0.31,0.61,-1.16,14.00,-3.00,39.00,53.650902,9.698408,4.20,0.17,12,3.824,3,20,-3,7,2
616058,0.06,-0.07,1.00,-0.06,-0.79,0.37,15.00,-2.00,42.00,53.650902,9.698408,4.20,0.17,12,3.714,3,15,-3,7,2
616158,0.06,-0.10,1.01,0.43,-0.12,1.40,13.00,-2.00,41.00,53.650902,9.698408,4.20,0.17,12,3.825,3,21,-2,7,2
616258,0.05,-0.10,0.99,-0.24,0.18,-0.98,14.00,-1.00,39.00,53.650902,9.698408,4.20,0.17,12,3.825,2,16,-3,7,2
616358,0.06,-0.08,0.99,-0.43,0.55,-0.92,14.00,-2.00,38.00,53.650902,9.698408,4.20,0.17,12,3.804,3,17,-2,7,2
616466,0.07,-0.08,1.00,0.06,-0.55,1.10,12.00,-2.00,36.00,53.650902,9.698408,4.20,0.17,12,3.824,3,18,-3,7,2
616566,0.06,-0.09,0.99,-0.12,-0.37,0.24,15.00,-2.00,39.00,53.650902,9.698408,4.20,0.17,12,3.805,3,16,-2,7,2
616666,0.08,-0.09,1.00,-0.06,0.85,-1.59,16.00,-4.00,42.00,53.650902,9.698408,4.20,0.17,12,3.825,4,21,-2,7,2
616767,0.08,-0.09,1.00,-0.31,-0.67,-0.55,15.00,-3.00,42.00,53.650902,9.698408,4.30,0.06,12,3.795,4,19,-2,7,2
616867,0.06,-0.08,1.00,0.61,-1.22,1.40,17.00,-2.00,33.00,53.650902,9.698408,4.30,0.04,12,3.784,3,13,-3,7,2
616969,0.07,-0.12,1.00,-0.18,0.18,-0.18,15.00,-1.00,37.00,53.650902,9.698408,4.30,0.04,12,3.776,3,16,-2,7,2
617069,0.07,-0.08,1.00,-0.55,1.16,-1.40,9.00,-2.00,40.00,53.650902,9.698408,4.30,0.04,12,3.834,4,23,-3,7,2
617172,0.07,-0.08,1.01,0.55,-0.61,-0.18,16.00,-2.00,39.00,53.650902,9.698408,4.30,0.04,12,3.764,3,14,-2,7,2
617272,0.06,-0.11,1.00,0.24,-0.92,1.71,12.00,-2.00,34.00,53.650902,9.698408,4.30,0.04,12,3.746,3,22,-3,7,2
617372,0.06,-0.07,1.00,-0.61,1.10,-0.12,14.00,-2.00,38.00,53.650902,9.698408,4.30,0.04,12,3.833,3,15,-2,7,2
617472,0.05,-0.10,1.00,0.55,0.00,-2.14,14.00,-2.00,34.00,53.650902,9.698408,4.30,0.04,12,3.735,2,18,-2,7,2
617572,0.07,-0.11,1.00,-0.55,0.37,0.98,15.00,-2.00,41.00,53.650902,9.698408,4.30,0.04,12,3.766,3,19,-3,7,2
617672,0.08,-0.07,0.99,-0.06,0.00,1.53,15.00,-1.00,38.00,53.650902,9.698408,4.30,0.04,12,3.824,4,11,-2,7,2
617772,0.07,-0.09,1.01,0.31,-0.98,-0.49,15.00,-1.00,34.00,53.650902,9.698408,4.30,0.24,12,3.745,3,13,-2,7,2
617873,0.07,-0.11,1.01,-0.37,0.73,-0.12,11.00,-3.00,42.00,53.650902,9.698408,4.30,0.24,12,3.815,3,27,-3,7,2
617973,0.07,-0.07,0.99,-0.55,-0.67,0.85,14.00,-2.00,42.00,53.650902,9.698408,4.30,0.24,12,3.834,4,16,-3,7,2
618073,0.06,-0.07,1.01,1.53,0.61,-0.55,13.00,-2.00,40.00,53.650902,9.698408,4.30,0.24,12,3.814,3,17,-2,7,2
618173,0.06,-0.09,0.99,-0.12,0.43,-1.28,13.00,-3.00,34.00,53.650902,9.698408,4.30,0.24,12,3.815,3,22,-2,7,2
618274,0.07,-0.08,1.03,-0.37,1.16,-0.37,15.00,-3.00,38.00,53.650902,9.698408,4.30,0.24,12,3.724,3,18,-3,7,2
618374,0.08,-0.09,1.02,0.18,-1.28,1.34,13.00,-2.00,34.00,53.650902,9.698408,4.30,0.24,12,3.735,4,17,-2,7,2
618474,0.07,-0.09,0.99,0.18,-0.79,1.46,18.00,-1.00,38.00,53.650902,9.698408,4.30,0.24,12,3.735,3,11,-2,7,2
618574,0.06,-0.06,1.00,-0.31,0.85,-0.98,15.00,0.00,34.00,53.650902,9.698408,4.30,0.24,12,3.813,3,6,-3,7,2
618674,0.08,-0.11,0.99,0.43,0.12,-1.95,17.00,-1.00,36.00,53.650902,9.698408,4.30,0.15,12,3.756,4,13,-3,7,2
618775,0.08,-0.07,1.01,-0.18,-0.43,0.55,12.00,-1.00,39.00,53.650902,9.698408,4.30,0.20,12,3.803,4,12,-2,7,2
618875,0.07,-0.11,1.01,0.61,-0.67,0.92,18.00,-2.00,37.00,53.650902,9.698408,4.30,0.20,12,3.826,3,15,-3,7,2
618976,0.06,-0.09,1.01,-1.22,-0.06,0.61,12.00,-2.00,42.00,53.650902,9.698408,4.30,0.20,12,3.735,3,21,-3,7,2
619079,0.08,-0.07,0.99,0.24,1.89,-1.28,15.00,-1.00,38.00,53.650902,9.698408,4.30,0.20,12,3.823,4,11,-2,7,2
619179,0.07,-0.08,1.02,0.31,-2.14,-0.79,16.00,-2.00,40.00,53.650902,9.698408,4.30,0.02,12,3.794,3,15,-2,7,2
619279,0.06,-0.10,0.99,0.24,0.12,1.89,18.00,-2.00,37.00,53.650902,9.698408,4.30,0.02,12,3.745,3,15,-2,7,2
619380,0.06,-0.07,1.00,-0.79,0.67,0.55,16.00,-1.00,36.00,53.650902,9.698408,4.30,0.02,12,3.803,3,10,-2,7,2
619484,0.06,-0.09,0.99,0.85,-0.43,-2.01,14.00,-2.00,31.00,53.650902,9.698408,4.30,0.02,12,3.794,3,16,-3,7,2
619584,0.05,-0.10,1.00,-0.12,0.98,-0.31,17.00,-2.00,35.00,53.650902,9.698408,4.30,0.37,12,3.815,3,16,-2,7,2
619684,0.09,-0.08,1.02,-0.24,-1.04,0.92,16.00,0.00,35.00,53.650902,9.698408,4.30,0.37,12,3.684,5,7,-2,7,2
619784,0.05,-0.07,1.00,0.37,-0.55,1.16,15.00,-1.00,34.00,53.650902,9.698408,4.30,0.37,12,3.753,2,10,-3,7,2
619884,0.05,-0.09,0.99,-0.06,1.65,-1.59,17.00,-2.00,39.00,53.650902,9.698408,4.30,0.37,12,3.695,3,16,-3,7,2
619984,0.06,-0.09,1.01,0.06,-1.22,-1.89,12.00,-2.00,43.00,53.650902,9.698408,4.30,0.20,12,3.825,3,21,-2,7,2
620084,0.06,-0.08,0.99,-0.24,0.55,1.65,19.00,-3.00,45.00,53.650902,9.698408,4.30,0.20,12,3.734,3,17,-2,7,2
620184,0.05,-0.09,1.01,0.24,-1.10,2.14,17.00,-1.00,44.00,53.650902,9.698408,4.30,0.20,12,3.825,2,14,-3,7,2
620284,0.05,-0.07,0.99,0.31,-0.12,-0.37,16.00,-2.00,38.00,53.650902,9.698408,4.30,0.20,12,3.754,2,14,-2,7,2
620384,0.06,-0.11,0.99,0.37,1.10,-1.83,16.00,-2.00,38.00,53.650902,9.698408,4.30,0.22,12,3.796,3,18,-2,7,2
620484,0.07,-0.07,1.00,-0.73,-0.92,0.00,14.00,-2.00,37.00,53.650902,9.698408,4.30,0.22,12,3.824,3,15,-3,7,2
620584,0.05,-0.08,0.99,0.67,-0.49,1.83,19.00,-2.00,41.00,53.650902,9.698408,4.30,0.22,12,3.794,2,13,-3,7,2
620684,0.05,-0.11,1.01,0.24,0.06,-0.67,15.00,1.00,33.00,53.650902,9.698408,4.40,0.35,12,3.776,2,8,-2,7,2
620784,0.07,-0.10,1.00,-0.55,1.53,-2.26,14.00,-2.00,38.00,53.650902,9.698408,4.40,0.35,12,3.725,3,19,-3,7,2
620884,0.08,-0.06,1.00,0.00,-0.55,0.00,18.00,-2.00,38.00,53.650902,9.698408,4.40,0.35,12,3.823,4,11,-3,7,2
621019,0.06,-0.10,1.00,0.79,-0.79,2.56,20.00,-3.00,36.00,53.650902,9.698408,4.40,0.09,12,3.845,3,16,-2,7,2
621120,0.05,-0.10,1.00,-0.55,0.43,-1.40,18.00,-1.00,38.00,53.650902,9.698408,4.40,0.09,12,3.745,2,13,-3,7,2
621220,0.07,-0.07,1.00,-0.18,0.67,-2.01,18.00,-2.00,40.00,53.650902,9.698408,4.40,0.04,12,3.783,3,12,-2,7,2
621322,0.08,-0.09,1.00,0.18,0.67,0.37,20.00,-3.00,40.00,53.650902,9.698408,4.40,0.04,12,3.795,4,15,-2,7,2
621425,0.06,-0.09,0.99,-0.24,-1.10,0.55,20.00,-2.00,42.00,53.650902,9.698408,4.40,0.09,12,3.765,3,14,-3,7,2
621525,0.03,-0.08,1.01,0.18,-0.12,0.06,13.00,-3.00,38.00,53.650902,9.698408,4.40,0.09,12,3.754,1,22,-3,7,2
621670,0.06,-0.10,1.01,-0.18,0.55,-0.85,18.00,-2.00,37.00,53.650902,9.698408,4.40,0.17,12,3.785,3,15,-2,7,2
621770,0.05,-0.07,1.00,-0.06,-0.79,0.61,17.00,-2.00,41.00,53.650902,9.698408,4.40,0.17,12,3.764,3,14,-3,7,2
621870,0.07,-0.10,1.00,0.55,0.79,0.55,14.00,-3.00,36.00,53.650902,9.698408,4.40,0.17,12,3.825,4,21,-2,7,2
621971,0.07,-0.08,1.01,-0.49,-0.61,-0.98,17.00,-1.00,38.00,53.650902,9.698408,4.30,0.28,12,3.834,3,11,-2,7,2
622071,0.05,-0.07,1.00,0.43,0.31,-0.18,17.00,-1.00,43.00,53.650902,9.698408,4.30,0.28,12,3.754,3,11,-3,7,2
622171,0.06,-0.10,1.00,0.06,-0.37,0.67,17.00,-2.00,42.00,53.650902,9.698408,4.30,0.24,12,3.815,3,17,-2,7,2
622271,0.07,-0.08,1.00,0.06,0.00,0.18,18.00,0.00,38.00,53.650902,9.698408,4.30,0.24,12,3.814,3,7,-2,7,2
622374,0.07,-0.10,1.00,0.00,0.18,-0.61,19.00,-2.00,32.00,53.650902,9.698408,4.30,0.56,12,3.755,4,12,-3,7,2
622474,0.07,-0.08,1.00,0.00,0.06,-0.18,19.00,-4.00,40.00,53.650902,9.698408,4.30,0.56,12,3.734,3,18,-2,7,2
622575,0.07,-0.09,1.00,0.24,-0.43,0.31,18.00,-2.00,40.00,53.650902,9.698408,4.30,0.56,12,3.725,3,15,-2,7,2
622675,0.06,-0.08,1.00,-0.24,-0.43,0.18,18.00,-2.00,40.00,53.650902,9.698408,4.30,0.15,12,3.814,3,14,-3,7,2
622775,0.06,-0.08,1.00,0.37,0.06,0.06,18.00,0.00,36.00,53.650902,9.698408,4.30,0.15,12,3.744,3,8,-3,7,2
622875,0.07,-0.10,1.00,0.00,0.00,-0.24,11.00,0.00,40.00,53.650902,9.698408,4.30,0.15,12,3.785,3,15,-2,7,2
622975,0.08,-0.09,1.00,-0.06,0.18,-0.31,18.00,-1.00,35.00,53.650902,9.698408,4.30,0.48,12,3.824,4,10,-2,7,2
623102,0.07,-0.09,1.00,0.24,-0.18,0.43,20.00,-2.00,40.00,53.650902,9.698408,4.30,0.48,12,3.724,4,13,-2,7,2
623202,0.06,-0.08,1.00,-0.06,0.18,-0.12,18.00,-2.00,40.00,53.650902,9.698408,4.30,0.48,12,3.734,3,14,-2,7,2
623302,0.06,-0.09,1.01,-0.06,0.06,-0.79,18.00,-2.00,40.00,53.650902,9.698408,4.30,0.48,12,3.805,3,15,-2,7,2
623403,0.07,-0.09,1.00,-0.12,0.18,0.31,16.00,-1.00,36.00,53.650902,9.698408,4.30,0.48,12,3.774,3,12,-3,7,2
623503,0.07,-0.09,1.00,0.18,0.18,-0.12,16.00,-2.00,38.00,53.650902,9.698408,4.30,0.48,12,3.734,4,15,-2,7,2
623603,0.06,-0.10,1.00,0.00,-0.24,-0.55,19.00,-2.00,42.00,53.650902,9.698408,4.30,0.48,12,3.765,3,15,-2,7,2
623703,0.06,-0.09,1.00,-0.12,0.67,0.06,17.00,-1.00,38.00,53.650902,9.698408,4.30,0.44,12,3.734,3,12,-2,7,2
623804,0.08,-0.09,1.00,-0.06,-0.55,0.06,18.00,-2.00,38.00,53.650902,9.698408,4.30,0.57,12,3.815,4,14,-3,7,2
623904,0.09,-0.08,1.00,-0.06,0.43,0.06,13.00,-1.00,39.00,53.650902,9.698408,4.30,0.57,12,3.814,5,13,-3,7,2
624006,0.09,-0.08,1.01,0.55,-0.49,-0.73,18.00,-2.00,39.00,53.650902,9.698408,4.30,0.57,12,3.794,4,13,-2,7,2
624106,0.04,-0.10,1.01,-0.18,-0.55,0.37,18.00,-1.00,42.00,53.650902,9.698408,4.30,0.57,12,3.795,2,13,-3,7,2
624206,0.05,-0.08,1.00,-0.18,0.73,0.67,15.00,-3.00,43.00,53.650902,9.698408,4.30,0.57,12,3.764,3,20,-2,7,2
624306,0.07,-0.07,1.00,0.43,-1.34,-0.31,12.00,-3.00,41.00,53.650902,9.698408,4.30,0.57,12,3.774,3,21,-3,7,2
624406,0.09,-0.09,0.99,0.55,0.55,0.12,17.00,-2.00,40.00,53.650902,9.698408,4.30,0.57,12,3.815,4,15,-2,7,2
624506,0.08,-0.09,1.01,-0.67,-0.67,-0.12,19.00,-4.00,40.00,53.650902,9.698408,4.30,0.57,12,3.754,4,18,-3,7,2
624606,0.06,-0.09,1.01,0.00,0.55,-0.06,17.00,-3.00,44.00,53.650902,9.698408,4.30,0.19,12,3.815,3,19,-2,7,2
624706,0.07,-0.08,1.01,-0.49,0.85,-0.24,18.00,-3.00,38.00,53.650902,9.698408,4.30,0.17,12,3.854,4,15,-3,7,2
624806,0.07,-0.08,1.01,0.06,-1.59,-0.06,16.00,-2.00,38.00,53.650902,9.698408,4.30,0.17,12,3.794,4,15,-2,7,2
624906,0.04,-0.09,1.00,0.24,0.06,0.43,12.00,-2.00,38.00,53.650902,9.698408,4.30,0.17,12,3.834,2,21,-3,7,2
625022,0.05,-0.12,1.00,-0.12,-0.18,-0.61,16.00,-2.00,34.00,53.650902,9.698408,4.30,0.17,12,3.796,2,18,-2,7,2
625122,0.06,-0.08,0.99,-1.28,0.18,0.00,14.00,-1.00,38.00,53.650902,9.698408,4.30,0.17,12,3.764,3,13,-2,7,2
625222,0.08,-0.06,0.99,0.67,0.18,0.00,15.00,-1.00,37.00,53.650902,9.698408,4.30,0.17,12,3.813,4,9,-2,7,2
625322,0.07,-0.11,0.99,1.22,-1.28,-0.18,15.00,-1.00,38.00,53.650902,9.698408,4.30,0.17,12,3.856,4,16,-3,7,2
625422,0.05,-0.09,1.01,-0.55,0.61,0.31,14.00,1.00,40.00,53.650902,9.698408,4.30,0.17,12,3.795,3,9,-3,7,2
625522,0.06,-0.07,1.00,-0.31,0.12,-0.18,14.00,-1.00,35.00,53.650902,9.698408,4.30,0.17,12,3.814,3,12,-3,7,2
625622,0.07,-0.07,1.00,0.49,-0.37,-0.49,9.00,-1.00,38.00,53.650902,9.698409,4.40,0.17,12,3.724,4,17,-2,7,2
625722,0.07,-0.12,1.00,0.37,-0.06,0.06,15.00,-1.00,39.00,53.650902,9.698408,4.40,0.48,12,3.756,3,16,-3,7,2
625822,0.06,-0.08,1.00,-0.49,0.31,0.24,16.00,1.00,43.00,53.650902,9.698408,4.40,0.48,12,3.824,3,7,-2,7,2
625922,0.05,-0.07,1.00,0.43,-0.06,-0.12,15.00,1.00,41.00,53.650902,9.698408,4.40,0.48,12,3.814,2,6,-3,7,2
626022,0.06,-0.10,1.00,0.24,0.49,-0.43,15.00,-2.00,36.00,53.650902,9.698408,4.40,0.48,12,3.795,3,17,-3,7,2
626122,0.06,-0.08,0.99,-0.49,-0.24,0.12,9.00,-2.00,39.00,53.650902,9.698408,4.40,0.48,12,3.714,3,24,-3,7,2
626222,0.06,-0.08,1.00,0.37,-0.18,0.55,12.00,2.00,32.00,53.650902,9.698408,4.40,0.48,12,3.764,3,1,-2,7,2
626322,0.07,-0.11,1.00,0.49,-0.18,-0.06,10.00,-1.00,35.00,53.650902,9.698408,4.40,0.48,12,3.716,4,20,-3,7,2
626422,0.07,-0.09,1.00,-0.18,-0.12,-0.12,16.00,-1.00,34.00,53.650902,9.698409,4.30,0.48,12,3.775,4,12,-2,7,2
626543,0.07,-0.08,1.00,0.18,-0.18,0.12,13.00,2.00,37.00,53.650902,9.698409,4.30,0.20,12,3.824,3,3,-2,7,2
626643,0.05,-0.09,1.01,-0.06,-0.55,0.18,11.00,0.00,36.00,53.650902,9.698409,4.30,0.20,12,3.795,2,14,-2,7,2
626743,0.06,-0.08,1.01,-0.31,1.22,0.00,13.00,-1.00,43.00,53.650902,9.698409,4.30,0.33,12,3.804,3,15,-2,7,2
626843,0.09,-0.09,1.00,0.12,0.43,-1.65,11.00,-2.00,40.00,53.650902,9.698409,4.30,0.33,12,3.814,5,20,-2,7,2
626943,0.06,-0.09,1.00,0.00,-0.43,-0.43,13.00,-3.00,39.00,53.650902,9.698409,4.30,0.33,12,3.805,3,22,-3,7,2
627043,0.06,-0.09,1.02,-0.43,0.49,1.34,12.00,-2.00,34.00,53.650902,9.698409,4.30,0.33,12,3.804,3,19,-2,7,2
627149,0.09,-0.07,1.01,0.43,0.06,0.12,13.00,-1.00,37.00,53.650902,9.698409,4.30,0.33,12,3.854,4,12,-2,7,2
627275,0.07,-0.10,1.01,-0.49,0.61,-0.18,14.00,0.00,38.00,53.650902,9.698409,4.30,0.33,12,3.815,4,12,-3,7,2
627375,0.08,-0.08,1.01,-0.37,0.24,0.67,12.00,-1.00,42.00,53.650902,9.698409,4.30,0.33,12,3.794,4,15,-2,7,2
627475,0.05,-0.07,0.99,-0.24,-0.31,0.37,18.00,-1.00,41.00,53.650902,9.698409,4.30,0.33,12,3.824,2,11,-3,7,2
627575,0.07,-0.09,1.00,1.65,-0.12,-0.06,16.00,-1.00,38.00,53.650902,9.698409,4.30,0.33,12,3.795,3,13,-2,7,2
627675,0.10,-0.08,0.99,-0.24,-0.31,-0.37,14.00,0.00,38.00,53.650902,9.698409,4.30,0.33,12,3.834,5,9,-3,7,2
627775,0.06,-0.08,1.02,-0.85,0.18,-0.43,16.00,-1.00,34.00,53.650902,9.698409,4.30,0.33,12,3.814,3,11,-3,7,2
627875,0.03,-0.08,1.00,-0.73,0.24,0.24,16.00,-2.00,38.00,53.650902,9.698409,4.30,0.17,12,3.824,1,15,-2,7,2
627975,0.07,-0.08,1.01,1.10,-0.31,0.49,15.00,-1.00,40.00,53.650898,9.698409,4.30,0.28,12,3.774,3,12,-2,7,2
628075,0.08,-0.11,1.01,-0.12,0.12,-0.06,16.00,-3.00,39.00,53.650898,9.698409,4.30,0.28,12,3.836,4,20,-2,7,2
628175,0.07,-0.07,1.01,-0.67,-0.12,-0.24,15.00,-2.00,41.00,53.650898,9.698409,4.30,0.28,12,3.744,4,15,-3,7,2
628275,0.06,-0.07,1.00,0.24,-0.18,-0.24,14.00,-2.00,43.00,53.650898,9.698409,4.30,0.28,12,3.774,3,16,-3,7,2
628375,0.06,-0.09,0.99,1.22,0.31,-0.37,10.00,0.00,37.00,53.650898,9.698409,4.30,0.28,12,3.765,3,15,-3,7,2
628475,0.06,-0.12,1.00,-0.61,-0.06,-0.18,15.00,-3.00,37.00,53.650898,9.698409,4.30,0.28,12,3.826,3,22,-2,7,2
628575,0.07,-0.06,1.00,-1.89,-0.24,0.92,16.00,-2.00,43.00,53.650898,9.698409,4.30,0.28,12,3.783,3,13,-3,7,2
628675,0.06,-0.08,1.00,0.98,-0.24,0.24,11.00,-4.00,39.00,53.650898,9.698409,4.30,0.28,12,3.804,3,27,-3,7,2
628775,0.07,-0.08,1.00,1.16,-0.37,-0.49,13.00,-3.00,37.00,53.650902,9.698409,4.40,0.06,12,3.764,3,20,-2,7,2
628875,0.07,-0.11,1.02,-0.43,0.06,-0.18,15.00,-2.00,40.00,53.650902,9.698409,4.40,0.06,12,3.836,3,19,-3,7,2
628975,0.06,-0.07,0.99,-0.98,-0.73,0.24,13.00,-2.00,40.00,53.650902,9.698409,4.40,0.06,12,3.723,3,16,-2,7,2
629075,0.05,-0.07,0.99,0.37,0.12,0.24,15.00,-2.00,41.00,53.650902,9.698409,4.40,0.06,12,3.823,3,15,-3,7,2
629176,0.06,-0.10,1.00,1.34,0.31,-0.43,16.00,-1.00,40.00,53.650902,9.698409,4.40,0.06,12,3.765,3,14,-2,7,2
629276,0.07,-0.10,1.00,-0.55,-0.24,0.06,16.00,-1.00,42.00,53.650902,9.698409,4.40,0.06,12,3.835,3,15,-2,7,2
629376,0.08,-0.07,0.99,0.12,0.49,0.37,13.00,-1.00,38.00,53.650902,9.698409,4.40,0.06,12,3.824,4,12,-2,7,2
629485,0.07,-0.11,0.99,0.73,-0.37,-0.24,17.00,-2.00,44.00,53.650902,9.698409,4.40,0.06,12,3.736,4,17,-2,7,2
629585,0.07,-0.08,1.02,-1.04,0.24,0.43,16.00,-1.00,43.00,53.650902,9.698409,4.40,0.06,12,3.824,4,12,-3,7,2
629685,0.07,-0.08,0.98,0.79,-0.12,0.12,15.00,-1.00,40.00,53.650902,9.698409,4.40,0.06,12,3.764,4,13,-2,7,2
629785,0.06,-0.07,1.01,-0.06,-0.92,0.12,14.00,0.00,42.00,53.650902,9.698409,4.40,0.20,12,3.803,3,9,-3,7,2
629885,0.06,-0.11,1.00,1.46,0.67,-0.61,13.00,-1.00,39.00,53.650902,9.698409,4.40,0.20,12,3.826,3,18,-3,7,2
629985,0.06,-0.08,1.01,-0.67,0.06,-0.61,18.00,-2.00,38.00,53.650902,9.698409,4.40,0.20,12,3.834,3,13,-3,7,2
630086,0.08,-0.07,1.00,0.55,-0.43,0.06,14.00,-2.00,39.00,53.650902,9.698409,4.50,0.37,12,3.814,4,15,-2,7,2
630186,0.05,-0.11,1.01,-0.24,-0.55,0.49,15.00,-2.00,38.00,53.650902,9.698409,4.50,0.37,12,3.766,3,19,-3,7,2
630286,0.05,-0.10,1.00,-0.18,-0.31,-0.43,16.00,-1.00,42.00,53.650902,9.698409,4.50,0.17,12,3.795,2,15,-3,7,2
630386,0.04,-0.06,1.00,0.06,0.43,-0.61,16.00,-1.00,40.00,53.650902,9.698409,4.50,0.17,12,3.813,2,11,-2,7,2
630486,0.09,-0.09,1.00,0.98,-0.37,0.06,15.00,-2.00,42.00,53.650902,9.698409,4.50,0.17,12,3.824,4,16,-3,7,2
630586,0.07,-0.09,1.00,-0.18,0.31,0.37,12.00,-2.00,40.00,53.650902,9.698409,4.50,0.13,12,3.815,3,20,-2,7,2
630686,0.06,-0.08,1.00,0.61,-0.18,-0.67,16.00,0.00,40.00,53.650902,9.698409,4.50,0.13,12,3.824,3,9,-3,7,2
630786,0.06,-0.09,0.99,0.49,-0.12,-0.31,13.00,-1.00,37.00,53.650902,9.698409,4.50,0.13,12,3.815,3,16,-2,7,2
630887,0.04,-0.10,0.99,-1.10,-0.98,1.40,13.00,-2.00,38.00,53.650902,9.698409,4.50,0.09,12,3.825,2,22,-3,7,2
630987,0.05,-0.07,1.02,-0.43,-0.06,1.10,13.00,-2.00,41.00,53.650902,9.698409,4.50,0.09,12,3.754,2,17,-3,7,2
631087,0.08,-0.08,1.00,0.55,-0.49,-0.67,14.00,-3.00,42.00,53.650902,9.698409,4.50,0.09,12,3.854,4,19,-2,7,2
631191,0.07,-0.11,1.01,-0.06,-0.24,-0.37,18.00,-2.00,41.00,53.650902,9.698409,4.50,0.09,12,3.775,3,16,-2,7,2
631294,0.08,-0.07,1.00,-0.43,0.98,0.98,11.00,0.00,39.00,53.650902,9.698409,4.50,0.28,12,3.793,4,10,-2,7,2
631394,0.06,-0.07,0.98,-0.85,0.37,-0.61,17.00,-1.00,43.00,53.650902,9.698409,4.50,0.28,12,3.814,3,11,-2,7,2
631494,0.07,-0.07,0.99,0.73,0.43,-1.28,13.00,0.00,35.00,53.650902,9.698409,4.50,0.20,12,3.813,4,8,-2,7,2
631594,0.06,-0.13,1.01,0.85,-0.06,-0.43,16.00,-2.00,39.00,53.650902,9.698409,4.50,0.20,12,3.847,3,20,-2,7,2
631694,0.04,-0.08,1.00,-1.89,1.22,1.28,15.00,-2.00,39.00,53.650902,9.698409,4.60,0.19,12,3.844,2,16,-3,7,2
631795,0.06,-0.06,1.00,0.00,0.24,-1.10,17.00,-2.00,41.00,53.650902,9.698409,4.60,0.19,12,3.863,3,12,-2,7,2
631895,0.06,-0.08,1.01,0.85,-0.49,-0.92,14.00,-2.00,41.00,53.650902,9.698409,4.60,0.19,12,3.834,3,16,-2,7,2
631995,0.06,-0.10,0.99,-0.37,0.67,1.71,15.00,1.00,40.00,53.650902,9.698410,4.60,0.07,12,3.915,3,9,-2,7,2
632095,0.06,-0.07,0.98,-0.31,-0.79,1.22,10.00,-3.00,43.00,53.650902,9.698410,4.60,0.07,12,3.854,3,25,-2,7,2
632195,0.05,-0.06,1.01,0.55,0.06,-0.67,12.00,-3.00,40.00,53.650902,9.698410,4.70,0.48,12,3.833,3,21,-2,7,2
632295,0.07,-0.10,0.99,0.79,0.61,-1.65,13.00,-2.00,43.00,53.650902,9.698410,4.70,0.48,12,3.845,3,21,-2,7,2
632395,0.07,-0.08,1.00,-0.31,-0.49,0.24,13.00,-2.00,40.00,53.650902,9.698410,4.70,0.48,12,3.714,4,18,-2,7,2
632497,0.07,-0.10,1.01,-0.12,0.67,1.10,14.00,-1.00,33.00,53.650902,9.698410,4.70,0.48,12,3.765,3,14,-2,7,2
632597,0.06,-0.07,1.00,-1.04,-0.24,0.18,13.00,0.00,37.00,53.650902,9.698409,4.60,0.04,12,3.833,3,9,-2,7,2
632697,0.06,-0.08,1.00,0.73,0.37,-1.04,15.00,1.00,40.00,53.650902,9.698409,4.60,0.04,12,3.734,3,7,-2,7,2
632809,0.06,-0.08,0.99,-0.49,0.31,0.43,15.00,-2.00,38.00,53.650902,9.698409,4.60,0.04,12,3.774,3,15,-3,7,2
632909,0.05,-0.10,1.01,0.55,-0.24,0.67,15.00,-1.00,40.00,53.650902,9.698409,4.60,0.04,12,3.735,2,15,-3,7,2
633009,0.07,-0.07,1.00,-0.79,-0.37,-0.18,15.00,-1.00,42.00,53.650902,9.698409,4.60,0.04,12,3.843,3,11,-2,7,2
633109,0.08,-0.08,0.99,0.43,0.00,-0.55,15.00,-1.00,40.00,53.650902,9.698409,4.60,0.04,12,3.814,4,12,-2,7,2
633216,0.08,-0.10,0.99,-0.37,-0.43,0.24,12.00,-1.00,42.00,53.650902,9.698409,4.60,0.04,12,3.766,4,18,-2,7,2
633316,0.06,-0.08,1.01,-0.06,-0.31,0.55,12.00,-1.00,40.00,53.650902,9.698409,4.60,0.04,12,3.814,3,15,-3,7,2
633420,0.06,-0.10,1.00,-0.43,0.49,0.37,16.00,-2.00,37.00,53.650902,9.698409,4.70,0.04,12,3.825,3,16,-2,7,2
633523,0.07,-0.07,1.00,-1.16,-0.61,-0.06,18.00,-3.00,34.00,53.650902,9.698409,4.70,0.11,12,3.784,3,14,-2,7,2
633625,0.08,-0.08,1.00,1.40,-0.24,-0.31,18.00,-1.00,35.00,53.650902,9.698409,4.70,0.11,12,3.764,4,10,-3,7,2
633725,0.06,-0.07,1.01,0.79,0.06,-0.37,16.00,-4.00,37.00,53.650902,9.698409,4.70,0.31,12,3.733,3,19,-2,7,2
633825,0.06,-0.09,0.98,0.79,0.43,-0.55,16.00,-1.00,37.00,53.650902,9.698409,4.70,0.31,12,3.715,3,12,-3,7,2
633925,0.08,-0.11,0.99,0.12,0.31,-0.55,17.00,-3.00,37.00,53.650902,9.698409,4.70,0.31,12,3.746,4,19,-3,7,2
634025,0.07,-0.07,1.00,-0.61,-0.43,-0.06,16.00,-5.00,43.00,53.650902,9.698409,4.70,0.31,12,3.694,3,22,-2,7,2
634125,0.06,-0.08,1.00,0.79,-0.49,0.37,17.00,-4.00,36.00,53.650902,9.698409,4.70,0.17,12,3.844,3,19,-2,7,2
634225,0.06,-0.10,1.00,-0.31,0.00,0.12,13.00,-4.00,44.00,53.650902,9.698409,4.70,0.17,12,3.815,3,28,-2,7,2
634325,0.07,-0.08,1.00,0.18,0.12,-0.55,15.00,-1.00,40.00,53.650902,9.698409,4.70,0.30,12,3.764,3,13,-2,7,2
634425,0.07,-0.09,1.01,-0.24,-0.06,-0.12,16.00,-2.00,42.00,53.650902,9.698409,4.70,0.30,12,3.805,4,16,-3,7,2
634526,0.06,-0.10,1.00,-0.85,-0.24,1.10,18.00,-2.00,44.00,53.650902,9.698409,4.70,0.30,12,3.835,3,17,-2,7,2
634626,0.07,-0.07,1.00,-1.59,0.55,0.85,15.00,-4.00,40.00,53.650902,9.698409,4.70,0.15,12,3.723,3,20,-2,7,2
634730,0.07,-0.07,1.00,0.98,-0.37,-0.92,15.00,-2.00,39.00,53.650902,9.698409,4.70,0.15,12,3.763,4,14,-2,7,2
634830,0.07,-0.09,1.00,0.92,0.12,-0.61,16.00,-1.00,39.00,53.650902,9.698409,4.70,0.15,12,3.805,3,13,-2,7,2
634930,0.07,-0.11,1.00,-0.12,-0.18,0.61,16.00,-4.00,34.00,53.650902,9.698410,4.70,0.65,12,3.826,3,22,-3,7,2
635030,0.07,-0.07,1.00,-1.34,-0.37,0.67,15.00,-4.00,38.00,53.650902,9.698410,4.70,0.33,12,3.754,3,21,-2,7,2
635130,0.06,-0.07,1.00,0.12,0.37,-0.31,18.00,-2.00,40.00,53.650902,9.698410,4.70,0.33,12,3.824,3,12,-3,7,2
635240,0.06,-0.09,1.00,0.85,-0.31,-0.79,16.00,-2.00,40.00,53.650902,9.698410,4.70,0.33,12,3.825,3,16,-3,7,2
635340,0.06,-0.10,0.99,-0.06,0.12,0.43,15.00,-3.00,39.00,53.650902,9.698410,4.70,0.33,12,3.745,3,21,-2,7,2
635440,0.06,-0.08,1.00,-0.73,-0.12,0.24,15.00,-2.00,36.00,53.650902,9.698410,4.70,0.33,12,3.824,3,16,-2,7,2
635540,0.06,-0.08,1.01,0.31,-0.18,-0.24,16.00,-4.00,40.00,53.650902,9.698410,4.70,0.33,12,3.774,3,20,-3,7,2
635640,0.07,-0.10,0.98,0.49,0.06,0.06,17.00,-1.00,40.00,53.650902,9.698409,4.80,0.11,12,3.765,4,13,-2,7,2
635740,0.09,-0.09,1.02,-0.67,-0.49,-0.06,16.00,-4.00,40.00,53.650902,9.698409,4.80,0.11,12,3.805,4,21,-2,7,2
635841,0.07,-0.08,1.00,-0.55,-0.18,-0.43,19.00,-2.00,42.00,53.650902,9.698409,4.90,0.44,12,3.834,4,12,-2,7,2
635941,0.05,-0.07,1.00,0.06,-0.24,0.18,18.00,-3.00,42.00,53.650902,9.698409,4.90,0.44,12,3.824,2,16,-2,7,2
636041,0.07,-0.08,1.00,1.77,-0.18,0.55,18.00,1.00,40.00,53.650902,9.698410,4.80,0.44,12,3.804,3,5,-2,7,2
636145,0.07,-0.11,1.00,-0.37,0.06,-0.43,13.00,-4.00,40.00,53.650902,9.698409,4.80,0.41,12,3.736,3,27,-3,7,2
636245,0.07,-0.08,1.00,-0.49,0.61,-0.43,14.00,-2.00,40.00,53.650902,9.698409,4.80,0.44,12,3.754,3,17,-3,7,2
636345,0.06,-0.11,1.01,-1.04,-0.06,-0.98,14.00,-3.00,40.00,53.650902,9.698409,4.80,0.44,12,3.836,3,23,-2,7,2
636445,0.05,-0.06,1.00,-3.54,0.55,-0.61,17.00,-3.00,48.00,53.650902,9.698409,4.80,0.44,12,3.773,2,17,-3,7,2
636545,0.10,-0.08,1.00,-2.99,0.18,1.10,18.00,-1.00,44.00,53.650902,9.698409,4.80,0.33,12,3.814,5,11,-2,7,2
636668,0.10,-0.08,1.01,-2.81,1.34,1.10,18.00,-2.00,41.00,53.650902,9.698409,4.80,0.33,12,3.824,5,12,-2,7,2
636768,0.06,-0.04,1.00,-1.40,0.31,-0.61,18.00,-3.00,42.00,53.650902,9.698409,4.80,0.33,12,3.832,3,12,-2,7,2
636868,0.06,-0.05,1.00,1.34,-0.55,-0.85,16.00,-3.00,42.00,53.650902,9.698410,4.90,0.06,12,3.842,3,14,-2,7,2
636968,0.09,-0.02,1.00,6.41,0.31,-0.06,17.00,0.00,41.00,53.650902,9.698410,4.90,0.06,12,3.751,5,1,-3,7,2
637068,0.09,-0.07,1.04,9.58,-0.31,0.18,17.00,1.00,46.00,53.650902,9.698410,4.90,0.11,12,3.733,4,5,-2,7,2
637168,0.06,-0.25,1.03,-0.73,-1.46,0.12,19.00,-1.00,48.00,53.650902,9.698410,4.90,0.11,12,3.8513,3,28,-2,7,2
637343,0.07,-0.04,0.98,-3.42,1.10,-0.55,18.00,-3.00,42.00,53.650902,9.698409,4.90,0.26,12,3.842,4,12,-3,7,2
637444,0.05,-0.09,0.97,0.55,-1.46,-1.83,18.00,0.00,44.00,53.650902,9.698409,4.90,0.26,12,3.825,3,11,-2,7,2
637544,0.10,-0.06,1.01,-1.28,0.98,-0.37,17.00,-1.00,42.00,53.650902,9.698409,4.80,0.50,12,3.753,5,8,-2,7,2
637644,0.08,-0.10,0.99,2.26,-0.67,1.83,18.00,-3.00,39.00,53.650902,9.698409,4.80,0.50,12,3.825,4,17,-2,7,2
637744,0.04,-0.09,1.01,1.22,-1.22,1.28,19.00,-1.00,46.00,53.650902,9.698409,4.80,0.28,12,3.745,2,13,-2,7,2
637844,0.06,-0.10,1.00,0.73,-0.31,0.06,19.00,-2.00,37.00,53.650902,9.698409,4.80,0.28,12,3.825,3,14,-2,7,2
637944,0.06,-0.08,1.01,-0.12,-0.92,0.37,15.00,-1.00,44.00,53.650902,9.698409,4.80,0.28,12,3.804,3,13,-2,7,2
638044,0.07,-0.11,1.01,0.49,-0.61,0.85,15.00,-1.00,40.00,53.650906,9.698409,4.90,0.31,12,3.836,3,16,-3,7,2
638144,0.06,-0.05,1.01,-1.16,1.04,-0.61,17.00,-3.00,43.00,53.650906,9.698409,4.90,0.31,12,3.822,3,14,-3,7,2
638244,0.09,-0.10,1.00,1.10,-0.98,-0.61,16.00,-2.00,39.00,53.650906,9.698409,4.90,0.31,12,3.825,5,16,-3,7,2
638384,0.08,-0.10,1.00,-0.49,0.85,1.28,17.00,-1.00,32.00,53.650902,9.698409,4.90,0.31,12,3.765,4,11,-3,7,2
638484,0.06,-0.07,1.00,-1.04,-0.79,-0.98,12.00,-2.00,46.00,53.650902,9.698409,4.90,0.31,12,3.754,3,20,-3,7,2
638588,0.06,-0.09,1.00,0.37,-0.24,-0.85,15.00,-1.00,45.00,53.650902,9.698409,4.90,0.31,12,3.804,3,14,-3,7,2
638688,0.06,-0.09,1.00,-0.12,0.18,0.61,17.00,-2.00,42.00,53.650902,9.698409,4.90,0.15,12,3.815,3,16,-3,7,2
638788,0.07,-0.08,1.00,-0.06,-0.67,0.73,14.00,-1.00,42.00,53.650902,9.698409,4.90,0.15,12,3.804,3,14,-3,7,2
638888,0.06,-0.08,1.00,0.24,0.49,-0.12,15.00,-3.00,45.00,53.650902,9.698409,4.90,0.15,12,3.814,3,19,-2,7,2
638988,0.07,-0.09,1.00,0.12,-0.18,-0.79,17.00,-2.00,41.00,53.650902,9.698409,4.90,0.15,12,3.785,3,16,-3,7,2
639088,0.06,-0.08,1.00,-0.37,-0.12,0.24,16.00,-3.00,42.00,53.650902,9.698409,4.90,0.15,12,3.754,3,18,-3,7,2
639188,0.06,-0.08,1.00,0.31,-0.12,0.61,16.00,-4.00,42.00,53.650902,9.698409,4.90,0.15,12,3.794,3,21,-2,7,2
639303,0.06,-0.09,1.00,0.06,-0.12,-0.49,15.00,-2.00,38.00,53.650902,9.698411,4.90,0.46,12,3.845,3,16,-2,7,2
639403,0.07,-0.09,1.00,0.12,0.31,-0.12,17.00,0.00,42.00,53.650902,9.698411,4.90,0.46,12,3.815,3,10,-3,7,2
639537,0.07,-0.07,1.01,0.06,-0.31,0.43,18.00,-2.00,36.00,53.650902,9.698411,5.00,0.31,12,3.794,3,12,-2,7,2
639637,0.07,-0.10,0.99,0.37,-0.06,0.24,12.00,-2.00,40.00,53.650902,9.698411,5.00,0.31,12,3.825,3,21,-3,7,2
639737,0.06,-0.09,1.01,-0.37,-0.06,-0.61,17.00,-4.00,36.00,53.650902,9.698411,5.00,0.31,12,3.835,3,20,-3,7,2
639837,0.06,-0.08,1.00,-0.06,0.24,0.00,16.00,-1.00,38.00,53.650902,9.698411,5.00,0.17,12,3.734,3,11,-2,7,2
639937,0.06,-0.08,1.00,0.24,-0.43,0.24,13.00,-2.00,37.00,53.650902,9.698412,5.00,0.06,12,3.814,3,18,-3,7,2
640037,0.07,-0.09,1.00,-0.06,-0.06,0.12,15.00,-2.00,41.00,53.650902,9.698412,5.00,0.06,12,3.795,3,17,-3,7,2
640137,0.07,-0.08,1.00,-0.12,0.24,-0.37,15.00,-2.00,38.00,53.650902,9.698412,5.00,0.06,12,3.804,3,16,-3,7,2
640237,0.07,-0.08,1.00,0.06,-0.12,-0.24,16.00,-3.00,41.00,53.650902,9.698412,5.00,0.06,12,3.814,3,18,-2,7,2
640337,0.06,-0.09,1.00,0.06,0.00,0.24,16.00,-2.00,38.00,53.650902,9.698412,5.00,0.06,12,3.834,3,15,-3,7,2
640437,0.06,-0.08,1.00,0.06,-0.06,0.12,16.00,-2.00,42.00,53.650902,9.698412,5.00,0.06,12,3.824,3,16,-2,7,2
640537,0.07,-0.08,1.00,0.06,0.06,-0.37,14.00,-4.00,44.00,53.650902,9.698412,5.00,0.06,12,3.774,3,24,-2,7,2
640647,0.07,-0.08,1.00,0.00,0.06,-0.06,18.00,-3.00,40.00,53.650906,9.698412,5.10,0.06,12,3.794,3,16,-2,7,2
640747,0.07,-0.08,1.00,0.00,-0.31,0.18,18.00,-3.00,40.00,53.650902,9.698411,5.10,0.06,12,3.704,3,16,-3,7,2
640847,0.07,-0.08,1.00,0.06,0.06,0.06,13.00,-2.00,45.00,53.650902,9.698412,5.10,0.33,12,3.814,3,19,-2,7,2
640947,0.06,-0.09,1.00,0.00,0.00,-0.37,13.00,-2.00,45.00,53.650902,9.698412,5.10,0.33,12,3.784,3,19,-2,7,2
641047,0.07,-0.08,1.00,-0.06,-0.06,-0.06,14.00,-4.00,40.00,53.650902,9.698412,5.10,0.33,12,3.734,3,23,-2,7,2
641147,0.07,-0.08,1.00,0.06,-0.18,0.31,15.00,-2.00,34.00,53.650902,9.698412,5.10,0.33,12,3.794,3,15,-2,7,2
641247,0.07,-0.08,1.00,0.06,-0.18,0.00,16.00,-1.00,37.00,53.650902,9.698412,5.10,0.33,12,3.814,3,12,-2,7,2
641351,0.07,-0.08,1.00,0.06,0.06,-0.18,15.00,-3.00,42.00,53.650902,9.698412,5.10,0.33,12,3.794,3,19,-2,7,2
641451,0.07,-0.08,1.00,0.00,0.00,-0.18,11.00,-1.00,43.00,53.650902,9.698412,5.10,0.33,12,3.834,3,18,-3,7,2
641551,0.07,-0.08,1.00,0.00,-0.12,0.18,14.00,1.00,40.00,53.650902,9.698412,5.10,0.33,12,3.804,3,7,-2,7,2
641651,0.07,-0.08,1.00,0.06,0.00,0.00,16.00,0.00,37.00,53.650902,9.698412,5.10,0.33,12,3.814,3,9,-3,7,2
641751,0.07,-0.08,1.00,0.00,-0.06,-0.24,16.00,-3.00,36.00,53.650902,9.698411,5.10,0.15,12,3.704,3,17,-3,7,2
641851,0.07,-0.08,1.00,0.06,-0.06,-0.06,14.00,-3.00,43.00,53.650902,9.698411,5.10,0.04,12,3.814,3,20,-2,7,2
641951,0.07,-0.08,1.00,0.00,-0.12,0.06,17.00,-2.00,42.00,53.650902,9.698411,5.10,0.04,12,3.804,3,15,-2,7,2
642051,0.07,-0.08,1.00,0.00,-0.06,0.00,13.00,-2.00,36.00,53.650902,9.698411,5.10,0.04,12,3.754,3,17,-3,7,2
642151,0.07,-0.08,1.00,0.00,-0.06,-0.12,12.00,-3.00,36.00,53.650902,9.698411,5.10,0.04,12,3.824,3,22,-3,7,2
642252,0.07,-0.08,1.00,0.06,-0.12,0.06,17.00,-3.00,36.00,53.650902,9.698411,5.10,0.04,12,3.824,3,16,-2,7,2
642352,0.07,-0.08,1.00,0.12,0.00,0.18,16.00,-3.00,44.00,53.650902,9.698411,5.10,0.04,12,3.824,3,18,-2,7,2
642452,0.07,-0.09,1.00,0.06,-0.12,-0.12,17.00,-3.00,36.00,53.650902,9.698411,5.10,0.04,12,3.734,3,17,-2,7,2
642554,0.07,-0.08,1.00,0.00,0.00,0.00,11.00,-3.00,46.00,53.650902,9.698411,5.10,0.04,12,3.744,3,25,-3,7,2
642654,0.07,-0.08,1.00,0.00,0.00,0.06,15.00,-4.00,43.00,53.650906,9.698411,5.10,0.61,12,3.824,3,22,-2,7,2
642758,0.06,-0.09,1.00,0.00,-0.06,0.00,15.00,-2.00,42.00,53.650906,9.698411,5.10,0.44,12,3.804,3,17,-2,7,2
642858,0.07,-0.08,1.00,0.06,0.06,-0.18,15.00,-2.00,40.00,53.650906,9.698411,5.10,0.44,12,3.744,3,16,-2,7,2
642959,0.07,-0.08,1.00,0.06,-0.12,-0.12,14.00,-3.00,39.00,53.650906,9.698411,5.10,0.44,12,3.814,3,20,-2,7,2
643059,0.07,-0.08,1.00,0.12,-0.12,0.06,15.00,-2.00,44.00,53.650906,9.698411,5.10,0.44,12,3.764,3,17,-3,7,2
643159,0.07,-0.08,1.00,0.18,-0.12,0.00,18.00,-3.00,37.00,53.650906,9.698411,5.10,0.44,12,3.824,3,16,-2,7,2
643259,0.06,-0.09,1.00,0.06,-0.06,-0.12,17.00,-3.00,41.00,53.650906,9.698411,5.10,0.44,12,3.904,3,18,-3,7,2
643361,0.07,-0.08,1.00,-0.12,0.06,0.06,15.00,-4.00,38.00,53.650906,9.698411,5.10,0.44,12,3.774,3,21,-2,7,2
643464,0.07,-0.08,1.00,0.12,-0.24,-0.12,15.00,-3.00,40.00,53.650906,9.698411,5.20,0.44,12,3.834,3,19,-2,7,2
643564,0.07,-0.09,1.00,0.12,0.12,0.00,13.00,-2.00,35.00,53.650906,9.698411,5.20,0.17,12,3.815,3,18,-2,7,2
643666,0.07,-0.08,1.00,-0.18,-0.18,-0.12,15.00,-3.00,40.00,53.650906,9.698411,5.20,0.11,12,3.864,3,19,-3,7,2
643766,0.07,-0.08,1.00,0.06,0.12,0.00,14.00,-2.00,44.00,53.650906,9.698411,5.20,0.11,12,3.804,3,17,-3,7,2
643866,0.07,-0.08,1.00,0.24,-0.18,-0.12,13.00,-2.00,40.00,53.650906,9.698411,5.20,0.11,12,3.814,3,18,-3,7,2
643976,0.07,-0.09,1.00,0.12,0.00,-0.12,13.00,-3.00,41.00,53.650906,9.698411,5.20,0.11,12,3.704,3,22,-2,7,2
644076,0.07,-0.08,1.00,0.00,0.00,-0.12,15.00,-4.00,39.00,53.650906,9.698411,5.20,0.11,12,3.814,3,22,-2,7,2
644176,0.07,-0.09,1.00,0.06,-0.12,0.06,14.00,-3.00,40.00,53.650906,9.698411,5.20,0.11,12,3.824,3,20,-2,7,2
644276,0.07,-0.08,1.00,-0.06,0.06,0.12,16.00,-1.00,36.00,53.650906,9.698411,5.20,0.11,12,3.784,3,12,-3,7,2
644377,0.07,-0.08,1.00,0.12,-0.18,-0.12,16.00,-2.00,40.00,53.650906,9.698411,5.30,0.11,12,3.834,3,15,-3,7,2
644477,0.07,-0.09,1.00,0.18,-0.24,0.00,17.00,-1.00,42.00,53.650906,9.698411,5.30,0.11,12,3.815,3,13,-2,7,2
644577,0.07,-0.08,1.00,0.12,-0.18,0.24,13.00,0.00,41.00,53.650906,9.698411,5.30,0.07,12,3.824,3,12,-2,7,2
644677,0.06,-0.09,1.00,0.06,-0.06,-0.31,15.00,-2.00,35.00,53.650906,9.698411,5.30,0.07,12,3.794,3,15,-2,7,2
644777,0.07,-0.08,1.00,0.12,-0.18,-0.18,15.00,-1.00,37.00,53.650906,9.698411,5.30,0.07,12,3.784,3,12,-2,7,2
644877,0.07,-0.09,1.00,0.24,-0.37,0.18,17.00,-2.00,37.00,53.650906,9.698411,5.30,0.07,12,3.724,3,14,-3,7,2
644977,0.05,-0.06,1.00,0.31,-0.24,-0.24,17.00,-2.00,42.00,53.650906,9.698411,5.30,0.07,12,3.733,2,12,-3,7,2
645092,0.04,-0.09,1.01,0.43,0.37,-0.55,14.00,-3.00,38.00,53.650906,9.698411,5.30,0.07,12,3.825,2,22,-2,7,2
645192,0.05,-0.07,1.00,-0.37,0.18,0.06,16.00,-4.00,41.00,53.650906,9.698411,5.30,0.07,12,3.734,2,21,-3,7,2
645292,0.07,-0.07,1.01,0.79,-0.31,0.12,15.00,-3.00,38.00,53.650906,9.698411,5.30,0.07,12,3.824,3,17,-2,7,2
645392,0.05,-0.10,1.00,1.16,-0.85,-0.92,15.00,-3.00,36.00,53.650906,9.698411,5.30,0.07,12,3.865,2,20,-2,7,2
645492,0.04,-0.09,1.00,0.24,-0.12,-0.61,15.00,-3.00,31.00,53.650906,9.698411,5.40,0.04,12,3.845,2,19,-2,7,2
645592,0.07,-0.08,1.01,0.61,0.31,0.37,13.00,-2.00,41.00,53.650906,9.698411,5.40,0.02,12,3.754,3,18,-3,7,2
645692,0.09,-0.10,0.99,0.12,-0.12,0.06,15.00,-1.00,42.00,53.650906,9.698411,5.40,0.02,12,3.835,5,14,-3,7,2
645792,0.10,-0.07,1.00,0.18,0.06,-0.49,17.00,-1.00,40.00,53.650906,9.698411,5.40,0.02,12,3.764,5,10,-2,7,2
645892,0.05,-0.10,1.00,0.79,-0.67,-0.18,12.00,-4.00,41.00,53.650906,9.698411,5.40,0.02,12,3.785,3,29,-3,7,2
645996,0.05,-0.11,1.00,0.67,0.12,0.73,12.00,-3.00,43.00,53.650906,9.698411,5.40,0.02,12,3.756,2,28,-2,7,2
646096,0.06,-0.07,1.00,0.06,-0.43,0.31,12.00,-1.00,42.00,53.650906,9.698411,5.30,0.24,12,3.824,3,15,-3,7,2
646196,0.07,-0.10,0.99,0.37,-0.24,-0.67,15.00,-4.00,38.00,53.650906,9.698411,5.30,0.24,12,3.756,4,24,-2,7,2
646296,0.07,-0.10,1.01,0.24,-0.31,-0.43,17.00,-2.00,36.00,53.650906,9.698411,5.30,0.24,12,3.835,3,15,-2,7,2
646400,0.06,-0.09,1.00,-0.49,0.06,1.22,15.00,-2.00,37.00,53.650906,9.698411,5.30,0.09,12,3.815,3,16,-2,7,2
646500,0.06,-0.10,1.00,-0.92,0.00,0.12,16.00,-3.00,40.00,53.650906,9.698411,5.30,0.09,12,3.865,3,20,-2,7,2
646600,0.07,-0.08,1.01,0.00,-0.67,-1.28,15.00,-3.00,38.00,53.650906,9.698411,5.30,0.09,12,3.794,4,18,-2,7,2
646723,0.08,-0.10,1.00,0.06,0.18,0.55,13.00,-2.00,38.00,53.650906,9.698411,5.30,0.13,12,3.835,4,19,-2,7,2
646823,0.06,-0.09,1.00,-0.06,-1.16,-0.06,13.00,-1.00,39.00,53.650906,9.698411,5.30,0.13,12,3.784,3,15,-3,7,2
646924,0.06,-0.09,1.00,0.31,0.79,-0.61,16.00,-3.00,36.00,53.650906,9.698411,5.30,0.13,12,3.795,3,19,-3,7,2
647024,0.07,-0.09,1.00,0.00,-0.92,-0.12,11.00,-3.00,34.00,53.650906,9.698411,5.30,0.07,12,3.825,3,24,-3,7,2
647124,0.06,-0.10,1.00,0.55,-0.49,0.49,20.00,-2.00,41.00,53.650906,9.698411,5.30,0.04,12,3.825,3,14,-3,7,2
647225,0.06,-0.09,1.00,0.12,0.24,-0.31,15.00,-3.00,40.00,53.650906,9.698411,5.30,0.04,12,3.815,3,20,-3,7,2
647340,0.05,-0.10,1.00,0.12,-0.12,-0.12,15.00,-5.00,43.00,53.650906,9.698411,5.30,0.04,12,3.815,3,27,-2,7,2
647451,0.06,-0.09,1.00,0.06,-0.31,0.61,16.00,-2.00,40.00,53.650906,9.698411,5.30,0.04,12,3.834,3,16,-2,7,2
647551,0.07,-0.12,1.04,-0.37,1.28,-0.06,16.00,-3.00,38.00,53.650906,9.698411,5.30,0.04,12,3.756,3,21,-3,7,2
647651,0.12,-0.10,1.00,0.12,0.24,-0.61,17.00,-2.00,34.00,53.650906,9.698410,5.30,0.22,12,3.815,6,14,-2,7,2
647751,0.06,-0.08,0.98,-0.18,-0.18,-0.24,16.00,-2.00,39.00,53.650906,9.698410,5.30,0.22,12,3.734,3,15,-3,7,2
647851,0.05,-0.08,1.00,0.31,0.24,0.06,12.00,-2.00,36.00,53.650906,9.698411,5.30,0.22,12,3.804,2,19,-2,7,2
647951,0.06,-0.10,1.01,0.06,-0.06,-0.24,16.00,-1.00,41.00,53.650906,9.698410,5.30,0.22,12,3.815,3,15,-2,7,2
648051,0.06,-0.10,1.00,-1.10,0.73,0.18,17.00,-2.00,38.00,53.650906,9.698410,5.30,0.22,12,3.835,3,16,-2,7,2
648155,0.05,-0.06,0.99,0.06,-0.61,0.00,18.00,-2.00,37.00,53.650906,9.698411,5.30,0.20,12,3.813,3,11,-3,7,2
648255,0.06,-0.10,1.01,1.59,-0.61,-0.24,15.00,-3.00,40.00,53.650906,9.698411,5.30,0.20,12,3.825,3,21,-2,7,2
648355,0.07,-0.08,1.01,2.14,-0.31,-0.31,16.00,-2.00,34.00,53.650906,9.698411,5.30,0.20,12,3.784,4,13,-3,7,2
648460,0.07,-0.11,1.01,2.20,0.37,-0.37,15.00,-1.00,38.00,53.650906,9.698411,5.30,0.20,12,3.816,4,15,-2,7,2
648561,0.06,-0.11,1.01,0.43,-0.06,-0.37,16.00,-1.00,40.00,53.650906,9.698411,5.30,0.17,12,3.816,3,16,-2,7,2
648661,0.05,-0.10,1.00,0.06,0.24,-0.06,16.00,-1.00,38.00,53.650906,9.698411,5.30,0.17,12,3.815,2,14,-3,7,2
648761,0.07,-0.11,1.01,-0.06,0.18,0.55,17.00,-2.00,38.00,53.650906,9.698411,5.30,0.17,12,3.766,4,16,-2,7,2
648861,0.04,-0.11,0.99,-0.85,-0.98,1.40,16.00,-3.00,38.00,53.650906,9.698410,5.30,0.20,12,3.806,2,22,-3,7,2
648961,0.05,-0.08,1.00,-0.18,-0.18,0.37,15.00,-2.00,37.00,53.650906,9.698410,5.30,0.20,12,3.824,2,16,-2,7,2
649063,0.07,-0.11,1.00,-0.12,0.98,-0.92,15.00,-3.00,44.00,53.650906,9.698410,5.30,0.22,12,3.706,4,22,-2,7,2
649163,0.07,-0.11,1.00,-0.24,0.00,-0.61,17.00,-3.00,38.00,53.650906,9.698410,5.30,0.22,12,3.796,4,19,-2,7,2
649265,0.01,-0.06,0.97,-0.06,-0.49,0.18,14.00,-2.00,37.00,53.650902,9.698410,5.30,0.35,12,3.803,0,16,-2,7,2
649365,0.00,-0.12,0.99,1.34,0.18,0.00,10.00,-2.00,40.00,53.650902,9.698410,5.30,0.35,12,3.836,0,33,-2,7,2
649491,0.03,-0.11,1.01,-0.43,0.31,1.46,15.00,-4.00,44.00,53.650902,9.698410,5.30,0.35,12,3.806,1,28,-3,7,2
649591,0.08,-0.10,1.01,-0.31,-0.73,0.79,17.00,-2.00,42.00,53.650902,9.698410,5.30,0.20,12,3.755,4,16,-2,7,2
649691,0.10,-0.09,1.01,-0.18,0.55,-0.55,16.00,-3.00,40.00,53.650902,9.698410,5.30,0.35,12,3.805,5,17,-2,7,2
649793,0.07,-0.13,1.00,-2.20,2.01,-1.04,16.00,-1.00,38.00,53.650902,9.698410,5.30,0.35,12,3.827,3,17,-2,7,2
649893,0.06,-0.05,1.02,-2.08,-0.98,-0.18,15.00,-3.00,41.00,53.650902,9.698410,5.30,0.20,12,3.792,3,15,-3,7,2
649993,0.06,-0.05,1.00,2.14,-0.18,0.79,14.00,-2.00,38.00,53.650902,9.698410,5.30,0.20,12,3.813,3,13,-3,7,2
650093,0.07,-0.15,1.00,0.98,-0.18,-0.92,11.00,-1.00,43.00,53.650902,9.698410,5.30,0.20,12,3.828,3,26,-2,7,2
650193,0.06,-0.08,1.00,-1.34,1.10,-0.92,18.00,-3.00,36.00,53.650902,9.698410,5.30,0.20,12,3.734,3,15,-2,7,2
650294,0.09,-0.09,1.02,-0.06,-0.67,0.79,17.00,-2.00,37.00,53.650902,9.698410,5.30,0.20,12,3.834,4,13,-3,7,2
650394,0.07,-0.11,0.99,0.61,-0.79,0.24,17.00,-3.00,38.00,53.650902,9.698410,5.30,0.20,12,3.816,3,19,-3,7,2
650495,0.07,-0.06,1.00,-0.24,0.73,-1.34,15.00,-3.00,36.00,53.650902,9.698410,5.30,0.20,12,3.803,4,16,-3,7,2
650595,0.02,-0.11,1.00,1.59,-0.49,-0.31,13.00,-3.00,37.00,53.650902,9.698410,5.30,0.20,12,3.826,1,26,-2,7,2
650695,0.06,-0.11,1.01,-0.12,-0.43,1.28,14.00,-1.00,34.00,53.650902,9.698410,5.30,0.02,12,3.766,3,15,-2,7,2
650795,0.09,-0.09,0.99,0.00,1.16,-0.67,12.00,-2.00,38.00,53.650902,9.698410,5.30,0.02,12,3.825,4,19,-3,7,2
650898,0.08,-0.10,0.99,0.24,0.12,-1.46,13.00,-3.00,44.00,53.650902,9.698410,5.30,0.02,12,3.815,4,24,-3,7,2
650998,0.08,-0.09,0.99,0.37,-0.12,1.28,14.00,-2.00,41.00,53.650902,9.698410,5.30,0.02,12,3.745,4,18,-3,7,2
651098,0.07,-0.12,1.01,0.31,-1.71,1.89,12.00,-2.00,40.00,53.650902,9.698410,5.30,0.02,12,3.736,3,24,-2,7,2
651198,0.00,-0.08,0.99,-0.31,0.61,-1.65,13.00,-1.00,36.00,53.650902,9.698410,5.30,0.02,12,3.754,0,17,-2,7,2
651299,0.00,-0.09,0.99,0.06,1.40,-2.38,16.00,-3.00,37.00,53.650902,9.698410,5.30,0.24,12,3.774,0,21,-3,7,2
651399,0.10,-0.08,0.99,-0.24,-0.61,2.20,14.00,-2.00,37.00,53.650902,9.698410,5.30,0.24,12,3.824,5,15,-3,7,2
651533,0.06,-0.09,1.01,-1.28,-0.43,2.38,16.00,-2.00,39.00,53.650902,9.698410,5.30,0.24,12,3.754,3,16,-3,7,2
651633,0.13,-0.09,1.00,-0.12,2.08,-3.36,15.00,-2.00,36.00,53.650902,9.698410,5.30,0.19,12,3.755,7,14,-2,7,2
651734,0.10,-0.12,1.01,-1.71,0.98,-1.53,12.00,-2.00,42.00,53.650902,9.698410,5.30,0.19,12,3.826,5,23,-2,7,2
651845,0.07,-0.06,0.99,-2.44,-1.95,3.85,12.00,-4.00,33.00,53.650902,9.698410,5.30,0.19,12,3.813,3,22,-2,7,2
651945,0.03,-0.07,0.98,-0.43,0.49,2.14,16.00,-4.00,37.00,53.650902,9.698410,5.30,0.19,12,3.784,1,21,-2,7,2
652045,0.07,-0.07,1.00,1.59,0.98,-2.81,17.00,-2.00,42.00,53.650902,9.698410,5.30,0.19,12,3.824,4,14,-3,7,2
652145,0.09,-0.11,1.00,0.31,-0.61,-2.32,15.00,-3.00,43.00,53.650902,9.698410,5.30,0.19,12,3.796,4,21,-2,7,2
652245,0.06,-0.09,1.00,-0.37,0.12,2.26,15.00,-3.00,44.00,53.650902,9.698410,5.30,0.19,12,3.844,3,20,-2,7,2
652345,0.05,-0.08,1.00,-0.24,-0.49,2.01,12.00,-3.00,40.00,53.650902,9.698410,5.30,0.33,12,3.914,2,23,-3,7,2
652445,0.07,-0.08,1.00,0.49,0.12,-1.40,15.00,-2.00,40.00,53.650902,9.698410,5.30,0.33,12,3.774,3,16,-2,7,2
652545,0.08,-0.09,1.01,0.12,0.67,-2.01,16.00,-4.00,42.00,53.650902,9.698410,5.30,0.33,12,3.775,4,22,-2,7,2
652645,0.06,-0.08,1.00,-0.24,-0.67,0.61,18.00,-3.00,35.00,53.650902,9.698410,5.30,0.33,12,3.834,3,15,-2,7,2
652747,0.05,-0.08,1.00,0.24,-0.55,1.89,17.00,-3.00,43.00,53.650902,9.698410,5.30,0.33,12,3.784,3,18,-2,7,2
652848,0.06,-0.09,1.00,0.24,0.37,-0.49,17.00,-2.00,43.00,53.650902,9.698410,5.30,0.33,12,3.785,3,16,-2,7,2
652948,0.07,-0.09,1.00,-0.12,0.24,-1.53,18.00,-1.00,39.00,53.650902,9.698410,5.30,0.33,12,3.765,4,11,-2,7,2
653048,0.07,-0.08,1.00,-0.12,-0.12,0.55,15.00,-3.00,42.00,53.650902,9.698409,5.30,0.33,12,3.814,4,19,-2,7,2
653148,0.06,-0.08,1.00,0.31,-0.55,1.16,11.00,-3.00,46.00,53.650902,9.698409,5.20,0.31,12,3.794,3,25,-3,7,2
653248,0.06,-0.09,1.00,0.06,0.18,-0.43,16.00,-1.00,39.00,53.650902,9.698409,5.20,0.28,12,3.805,3,13,-2,7,2
653348,0.07,-0.08,1.00,-0.18,0.55,-1.22,16.00,-3.00,43.00,53.650902,9.698409,5.20,0.28,12,3.764,3,19,-2,7,2
653448,0.07,-0.08,1.00,0.06,-0.18,0.18,10.00,-3.00,43.00,53.650902,9.698409,5.20,0.28,12,3.774,3,26,-2,7,2
653548,0.06,-0.08,1.01,0.24,-0.79,0.98,13.00,-4.00,44.00,53.650902,9.698409,5.20,0.28,12,3.804,3,25,-2,7,2
653650,0.06,-0.09,1.00,-0.06,-0.06,-0.24,13.00,-2.00,41.00,53.650902,9.698409,5.20,0.28,12,3.805,3,19,-2,7,2
653750,0.07,-0.08,1.00,0.00,0.37,-0.98,13.00,-2.00,42.00,53.650902,9.698409,5.20,0.28,12,3.814,3,18,-2,7,2
653850,0.07,-0.08,1.00,0.18,-0.18,0.12,16.00,-4.00,41.00,53.650902,9.698409,5.20,0.28,12,3.744,3,21,-2,7,2
653951,0.06,-0.09,0.99,0.18,-0.24,0.79,15.00,0.00,38.00,53.650902,9.698409,5.20,0.28,12,3.755,3,10,-2,7,2
654051,0.07,-0.08,1.00,-0.06,0.37,-0.31,15.00,0.00,38.00,53.650902,9.698409,5.20,0.22,12,3.764,3,9,-2,7,2
654153,0.07,-0.08,1.00,0.12,0.24,-0.92,17.00,-3.00,40.00,53.650902,9.698409,5.20,0.22,12,3.824,4,17,-2,7,2
654253,0.07,-0.09,1.00,0.18,-0.06,0.24,14.00,-3.00,37.00,53.650902,9.698409,5.20,0.22,12,3.724,3,20,-2,7,2
654353,0.07,-0.08,1.00,0.31,0.00,0.67,17.00,-1.00,39.00,53.650902,9.698409,5.20,0.22,12,3.794,3,11,-2,7,2
654453,0.07,-0.08,1.00,0.49,0.55,-0.43,17.00,-3.00,41.00,53.650902,9.698409,5.20,0.22,12,3.744,4,17,-2,7,2
654553,0.06,-0.11,1.01,0.00,-0.55,-0.55,16.00,-2.00,42.00,53.650902,9.698409,5.20,0.22,12,3.826,3,19,-2,7,2
654653,0.05,-0.08,0.99,-0.37,-0.06,0.49,15.00,-3.00,37.00,53.650902,9.698409,5.20,0.22,12,3.754,3,18,-3,7,2
654753,0.06,-0.08,1.01,0.67,-0.06,0.37,17.00,-1.00,42.00,53.650902,9.698409,5.20,0.43,12,3.814,3,11,-3,7,2
654853,0.06,-0.09,0.99,0.24,0.37,-0.43,15.00,-2.00,41.00,53.650902,9.698409,5.20,0.43,12,3.765,3,18,-2,7,2
654953,0.07,-0.09,1.01,0.24,1.10,-0.31,11.00,-2.00,36.00,53.650902,9.698409,5.20,0.43,12,3.835,3,20,-2,7,2
655053,0.06,-0.09,1.01,0.12,-0.67,0.00,17.00,-2.00,43.00,53.650902,9.698409,5.20,0.43,12,3.755,3,16,-2,7,2
655164,0.06,-0.08,1.00,0.55,0.37,0.92,15.00,-3.00,43.00,53.650902,9.698409,5.20,0.43,12,3.744,3,19,-2,7,2
655264,0.06,-0.11,1.00,0.49,-0.79,0.37,16.00,-1.00,42.00,53.650902,9.698409,5.20,0.43,12,3.816,3,15,-3,7,2
655364,0.06,-0.08,1.00,-0.37,-0.24,0.06,14.00,-2.00,37.00,53.650902,9.698409,5.20,0.06,12,3.744,3,16,-2,7,2
655464,0.07,-0.12,1.00,-0.24,-0.18,-0.43,17.00,-2.00,40.00,53.650902,9.698409,5.20,0.04,12,3.836,4,18,-2,7,2
655565,0.06,-0.05,0.97,-0.37,0.18,-0.98,14.00,-2.00,44.00,53.650902,9.698409,5.20,0.04,12,3.833,3,14,-2,7,2
655665,0.05,-0.09,1.00,0.98,0.61,0.49,17.00,-2.00,43.00,53.650902,9.698409,5.20,0.04,12,3.755,3,16,-3,7,2
655765,0.06,-0.09,0.99,-0.31,0.49,0.43,17.00,-3.00,40.00,53.650902,9.698409,5.20,0.04,12,3.825,3,19,-2,7,2
655865,0.07,-0.06,1.01,1.16,0.98,0.12,15.00,-3.00,41.00,53.650902,9.698409,5.10,0.19,12,3.793,3,17,-2,7,2
655965,0.08,-0.10,0.98,2.32,-0.85,0.00,19.00,-3.00,42.00,53.650902,9.698409,5.10,0.19,12,3.815,4,17,-2,7,2
656065,0.05,-0.10,1.00,2.93,-0.31,0.67,16.00,-2.00,43.00,53.650902,9.698409,5.10,0.19,12,3.775,2,19,-2,7,2
656165,0.06,-0.12,1.00,-1.16,0.73,-0.85,16.00,-5.00,41.00,53.650902,9.698409,5.10,0.30,12,3.807,3,28,-3,7,2
656265,0.07,-0.08,0.99,-2.01,0.92,-0.98,17.00,-2.00,41.00,53.650902,9.698409,5.10,0.30,12,3.804,4,14,-3,7,2
656365,0.08,-0.09,1.00,0.12,0.37,0.73,16.00,-3.00,46.00,53.650902,9.698409,5.10,0.09,12,3.825,4,20,-2,7,2
656465,0.04,-0.08,1.00,-0.12,-1.40,0.67,15.00,-1.00,43.00,53.650902,9.698409,5.10,0.09,12,3.824,2,14,-2,7,2
656565,0.03,-0.09,1.00,0.79,1.59,-0.18,11.00,-2.00,44.00,53.650902,9.698409,5.10,0.22,12,3.745,1,25,-3,7,2
656665,0.04,-0.10,0.99,-0.61,-0.55,-1.28,17.00,-2.00,40.00,53.650902,9.698409,5.10,0.22,12,3.835,2,17,-2,7,2
656765,0.07,-0.09,0.99,0.24,1.34,1.34,16.00,-2.00,41.00,53.650902,9.698409,5.10,0.02,12,3.824,4,15,-2,7,2
656880,0.08,-0.10,1.01,0.12,-1.16,0.06,14.00,-2.00,42.00,53.650902,9.698409,5.10,0.02,12,3.785,4,18,-2,7,2
656984,0.07,-0.09,1.00,0.18,0.67,-0.24,15.00,-1.00,40.00,53.650902,9.698409,5.10,0.28,12,3.845,4,13,-2,7,2
657084,0.08,-0.09,1.01,0.24,-0.24,-0.18,16.00,-1.00,41.00,53.650902,9.698409,5.10,0.28,12,3.795,4,13,-2,7,2
657187,0.07,-0.09,1.00,1.10,0.31,0.12,15.00,-3.00,42.00,53.650902,9.698409,5.10,0.22,12,3.815,3,20,-2,7,2
657287,0.07,-0.10,1.01,1.04,0.12,-0.12,13.00,-3.00,44.00,53.650902,9.698409,5.10,0.22,12,3.795,4,24,-2,7,2
657404,0.08,-0.11,1.00,0.06,-0.24,0.12,10.00,-4.00,44.00,53.650902,9.698409,5.10,0.13,12,3.826,4,32,-2,7,2
657504,0.09,-0.10,1.00,0.24,0.18,-0.06,20.00,-2.00,41.00,53.650902,9.698409,5.10,0.13,12,3.795,4,13,-2,7,2
657628,0.08,-0.10,1.00,0.43,-0.12,-0.06,14.00,-4.00,38.00,53.650902,9.698409,5.10,0.13,12,3.765,4,24,-2,7,2
657729,0.07,-0.10,1.00,0.12,-0.24,0.37,12.00,-3.00,45.00,53.650902,9.698409,5.10,0.22,12,3.785,4,25,-2,7,2
657829,0.06,-0.10,1.00,0.18,-0.49,0.24,15.00,-2.00,38.00,53.650902,9.698409,5.10,0.02,12,3.695,3,18,-2,7,2
657929,0.06,-0.11,0.99,-0.43,0.31,-0.49,14.00,-3.00,43.00,53.650902,9.698409,5.10,0.02,12,3.786,3,24,-2,7,2
658030,0.10,-0.11,1.01,0.24,0.85,-0.55,16.00,-2.00,40.00,53.650902,9.698409,5.10,0.02,12,3.776,5,16,-3,7,2
658130,0.10,-0.10,0.99,0.00,-0.61,-0.31,15.00,-1.00,42.00,53.650902,9.698409,5.10,0.02,12,3.785,5,14,-2,7,2
658230,0.05,-0.09,1.00,0.18,-0.31,0.49,16.00,-2.00,40.00,53.650902,9.698409,5.10,0.13,12,3.794,2,16,-2,7,2
658330,0.06,-0.11,0.99,-0.12,-0.67,0.67,15.00,-3.00,42.00,53.650902,9.698409,5.10,0.13,12,3.816,3,22,-3,7,2
658430,0.07,-0.10,1.00,0.43,0.37,0.49,15.00,-2.00,42.00,53.650902,9.698409,5.10,0.13,12,3.835,4,18,-2,7,2
658559,0.08,-0.08,1.00,0.12,-0.24,-1.34,14.00,-2.00,40.00,53.650902,9.698409,5.00,0.19,12,3.794,4,16,-2,7,2
658659,0.07,-0.09,1.00,0.98,-0.31,0.79,16.00,-2.00,38.00,53.650902,9.698409,5.00,0.19,12,3.825,4,16,-2,7,2
658759,0.06,-0.12,1.01,0.12,-0.43,0.67,15.00,-3.00,43.00,53.650902,9.698409,5.00,0.19,12,3.806,3,23,-2,7,2
658859,0.07,-0.10,1.00,0.00,0.24,-0.92,11.00,-1.00,40.00,53.650902,9.698409,5.00,0.13,12,3.825,3,19,-3,7,2
658959,0.07,-0.10,1.00,0.24,1.10,-0.92,16.00,-6.00,42.00,53.650902,9.698409,5.00,0.13,12,3.825,4,27,-2,7,2
659059,0.05,-0.11,1.02,-0.55,-0.49,-0.85,14.00,-3.00,45.00,53.650902,9.698409,5.00,0.13,12,3.805,3,24,-3,7,2
659159,0.05,-0.08,1.01,-1.71,0.12,0.79,16.00,-1.00,44.00,53.650902,9.698409,5.00,0.13,12,3.814,2,13,-2,7,2
659262,0.08,-0.09,1.01,1.10,1.16,0.49,15.00,-3.00,40.00,53.650902,9.698409,5.00,0.22,12,3.715,4,19,-3,7,2
659362,0.06,-0.10,1.01,0.24,-2.26,-0.24,14.00,-2.00,36.00,53.650902,9.698409,5.00,0.22,12,3.855,3,18,-2,7,2
659463,0.06,-0.10,1.01,1.22,1.71,0.79,13.00,-1.00,45.00,53.650902,9.698409,5.00,0.22,12,3.795,3,19,-3,7,2
659563,0.09,-0.12,1.00,0.06,-0.73,-1.40,16.00,-2.00,38.00,53.650902,9.698409,4.90,0.04,12,3.836,5,18,-2,7,2
659699,0.07,-0.11,1.01,-0.06,0.92,0.85,15.00,-2.00,44.00,53.650902,9.698409,4.90,0.04,12,3.806,4,20,-3,7,2
659799,0.06,-0.11,1.00,-0.49,-0.98,0.06,15.00,-5.00,39.00,53.650902,9.698409,4.90,0.04,12,3.816,3,27,-2,7,2
659899,0.03,-0.10,1.00,-0.43,0.92,-1.22,15.00,-2.00,41.00,53.650902,9.698409,4.90,0.04,12,3.825,1,20,-2,7,2
659999,0.11,-0.09,1.02,-0.12,1.71,-0.49,15.00,-4.00,39.00,53.650902,9.698409,4.90,0.04,12,3.834,6,20,-2,7,2
660099,0.05,-0.07,0.99,-0.55,-2.26,-0.37,14.00,-3.00,35.00,53.650902,9.698409,4.90,0.04,12,3.804,2,19,-2,7,2
660199,0.01,-0.10,1.00,1.16,0.92,2.14,14.00,-2.00,41.00,53.650902,9.698409,4.90,0.04,12,3.765,0,23,-2,7,2
660300,0.09,-0.12,1.00,0.43,-1.46,0.92,14.00,-4.00,41.00,53.650902,9.698409,4.90,0.04,12,3.776,5,25,-3,7,2
660400,0.09,-0.11,1.01,-0.61,-0.24,-1.34,13.00,-3.00,39.00,53.650902,9.698409,4.90,0.28,12,3.826,5,23,-3,7,2
660502,0.07,-0.14,1.02,-4.76,-0.31,-1.53,18.00,-2.00,39.00,53.650902,9.698409,4.90,0.06,12,3.797,4,18,-2,7,2
660602,0.05,-0.02,0.97,-1.59,-0.12,0.73,12.00,-2.00,44.00,53.650902,9.698409,4.90,0.06,12,3.761,2,12,-3,7,2
660702,0.06,-0.07,1.02,2.26,-0.18,1.16,16.00,-3.00,43.00,53.650902,9.698409,4.90,0.06,12,3.833,3,17,-2,7,2
660802,0.08,-0.13,1.01,0.55,0.43,-0.92,19.00,-3.00,38.00,53.650902,9.698409,4.90,0.06,12,3.757,4,19,-2,7,2
660902,0.08,-0.05,1.00,-0.37,-0.67,0.49,19.00,-3.00,38.00,53.650902,9.698409,4.90,0.06,12,3.802,4,12,-2,7,2
661002,0.08,-0.10,1.00,1.71,-1.83,2.81,15.00,-4.00,39.00,53.650902,9.698409,4.90,0.06,12,3.855,4,23,-2,7,2
661102,0.05,-0.13,1.00,-0.12,-0.06,0.31,14.00,-4.00,42.00,53.650902,9.698409,4.90,0.06,12,3.797,2,30,-2,7,2
661204,0.06,-0.08,1.00,-1.71,1.71,-2.69,14.00,-3.00,40.00,53.650902,9.698409,4.90,0.06,12,3.824,3,21,-2,7,2
661304,0.08,-0.09,1.02,0.55,0.55,-0.61,15.00,-3.00,41.00,53.650902,9.698409,4.80,0.13,12,3.804,4,19,-2,7,2
661404,0.07,-0.11,1.00,0.00,-0.55,1.34,14.00,-4.00,34.00,53.650902,9.698409,4.80,0.04,12,3.736,4,24,-2,7,2
661504,0.03,-0.07,1.02,-0.06,-2.14,1.95,15.00,-3.00,42.00,53.650902,9.698409,4.80,0.04,12,3.804,1,20,-3,7,2
661604,0.08,-0.10,1.01,0.98,1.46,0.24,12.00,-3.00,39.00,53.650902,9.698409,4.80,0.04,12,3.735,4,24,-2,7,2
661704,0.09,-0.12,1.01,-0.79,-0.67,-3.05,13.00,-5.00,39.00,53.650902,9.698409,4.80,0.04,12,3.827,5,30,-2,7,2
661804,0.05,-0.06,1.00,-1.16,-0.79,0.18,15.00,-5.00,44.00,53.650902,9.698409,4.80,0.04,12,3.823,2,23,-2,7,2
661915,0.05,-0.10,0.99,1.65,0.98,1.95,19.00,-2.00,40.00,53.650902,9.698409,4.80,0.04,12,3.725,2,15,-2,7,2
662015,0.04,-0.11,0.98,-0.43,0.31,-1.34,13.00,-1.00,36.00,53.650902,9.698409,4.80,0.04,12,3.726,2,19,-3,7,2
662115,0.08,-0.04,1.01,0.06,3.54,-2.01,13.00,-2.00,43.00,53.650902,9.698409,4.80,0.04,12,3.772,4,12,-3,7,2
662215,0.10,-0.10,0.98,2.44,-2.14,0.73,18.00,-1.00,39.00,53.650902,9.698409,4.80,0.04,12,3.805,5,12,-2,7,2
662315,0.06,-0.11,1.00,2.26,-1.95,3.42,13.00,-3.00,43.00,53.650902,9.698409,4.80,0.13,12,3.746,3,25,-2,7,2
662415,0.07,-0.10,1.01,-0.55,1.71,-1.22,12.00,-2.00,40.00,53.650902,9.698409,4.80,0.13,12,3.815,3,21,-2,7,2
662516,0.06,-0.15,1.01,-0.55,-0.49,-3.60,19.00,-2.00,40.00,53.650902,9.698409,4.80,0.13,12,3.818,3,20,-2,7,2
662619,0.07,-0.08,1.02,-4.64,1.65,0.24,16.00,-5.00,38.00,53.650902,9.698409,4.80,0.13,12,3.774,3,22,-2,7,2
662719,0.07,-0.08,0.99,1.77,-0.61,1.34,18.00,-3.00,38.00,53.650902,9.698409,4.80,0.13,12,3.764,4,15,-2,7,2
662819,0.05,-0.07,1.01,1.65,-1.77,0.73,11.00,-3.00,38.00,53.650902,9.698409,4.80,0.26,12,3.863,2,22,-2,7,2
662920,0.06,-0.14,1.01,5.07,0.00,0.67,15.00,-3.00,39.00,53.650902,9.698409,4.80,0.26,12,3.718,3,25,-2,7,2
663035,0.08,-0.10,1.01,-0.98,0.61,-1.10,17.00,-2.00,50.00,53.650902,9.698409,4.80,0.26,12,3.745,4,17,-2,7,2
663135,0.09,-0.12,1.00,-0.73,-1.53,0.18,15.00,-3.00,36.00,53.650902,9.698409,4.80,0.26,12,3.736,5,21,-2,7,2
663235,0.07,-0.15,0.99,-7.45,-1.04,0.98,12.00,-2.00,40.00,53.650902,9.698409,4.80,0.26,12,3.708,3,28,-2,7,2
663335,0.09,-0.03,0.93,-7.39,1.10,-0.92,16.00,-2.00,43.00,53.650902,9.698409,4.80,0.26,12,3.812,5,9,-2,7,2
663435,0.08,-0.07,0.99,-5.55,-0.85,-1.28,18.00,-4.00,37.00,53.650902,9.698409,4.80,0.26,12,3.804,4,17,-2,7,2
663536,0.06,-0.04,0.99,-2.50,-0.73,0.37,14.00,-2.00,39.00,53.650902,9.698409,4.80,0.26,12,3.812,3,12,-2,7,2
663636,0.07,-0.06,0.95,-2.20,1.71,1.34,13.00,-2.00,41.00,53.650902,9.698409,4.80,0.02,12,3.813,4,15,-2,7,2
663739,0.08,-0.05,0.99,2.01,-0.55,0.31,15.00,-3.00,39.00,53.650902,9.698409,4.80,0.02,12,3.772,4,14,-2,7,2
663839,0.07,-0.05,0.98,2.14,-0.67,-1.16,15.00,-1.00,38.00,53.650902,9.698409,4.80,0.02,12,3.823,4,9,-2,7,2
663939,0.06,-0.07,0.97,5.62,0.98,-1.22,21.00,-2.00,44.00,53.650902,9.698409,4.80,0.02,12,3.764,3,12,-2,7,2
664039,0.07,-0.07,0.99,5.07,-0.67,0.06,20.00,-2.00,40.00,53.650902,9.698409,4.80,0.02,12,3.823,4,11,-2,7,2
664139,0.07,-0.14,1.01,2.38,-0.79,0.79,14.00,-2.00,38.00,53.650902,9.698409,4.80,0.02,12,3.817,3,22,-2,7,2
664240,0.06,-0.11,1.00,-1.59,0.24,-0.06,15.00,-4.00,47.00,53.650902,9.698410,4.80,0.72,12,3.786,3,26,-2,7,2
664340,0.05,-0.05,1.00,-0.61,0.55,-0.73,18.00,-2.00,45.00,53.650902,9.698410,4.80,0.17,12,3.802,3,11,-2,7,2
664440,0.07,-0.10,1.00,0.92,-0.31,-0.06,15.00,-3.00,38.00,53.650902,9.698410,4.80,0.17,12,3.765,4,20,-2,7,2
664540,0.07,-0.08,1.00,-0.67,-0.61,0.79,16.00,-3.00,44.00,53.650902,9.698410,4.80,0.17,12,3.814,3,19,-2,7,2
664640,0.07,-0.07,0.99,0.79,0.12,0.37,18.00,-2.00,44.00,53.650902,9.698410,4.80,0.17,12,3.833,3,13,-2,7,2
664740,0.05,-0.11,1.00,0.92,-0.31,-0.55,19.00,-1.00,43.00,53.650902,9.698410,4.80,0.17,12,3.796,3,14,-2,7,2
664840,0.06,-0.09,1.00,-1.10,0.43,-0.12,16.00,-2.00,46.00,53.650902,9.698410,4.80,0.17,12,3.825,3,18,-2,7,2
664940,0.06,-0.06,1.00,-0.67,0.06,0.24,17.00,-5.00,45.00,53.650902,9.698410,4.80,0.17,12,3.753,3,21,-2,7,2
665040,0.06,-0.09,1.00,0.67,-0.73,-0.12,15.00,-1.00,46.00,53.650902,9.698409,4.80,0.17,12,3.755,3,16,-2,7,2
665140,0.05,-0.09,1.01,-0.31,0.31,-0.43,15.00,-2.00,49.00,53.650902,9.698409,4.80,0.11,12,3.745,3,19,-2,7,2
665240,0.06,-0.08,1.00,0.00,0.31,-0.06,20.00,-1.00,41.00,53.650902,9.698409,4.80,0.11,12,3.604,3,10,-2,7,2
665340,0.07,-0.09,1.00,0.24,-0.37,0.06,13.00,-2.00,44.00,53.650902,9.698409,4.80,0.11,12,3.804,4,19,-2,7,2
665440,0.07,-0.09,1.00,0.06,0.06,0.18,17.00,-4.00,45.00,53.650902,9.698409,4.80,0.11,12,3.775,4,21,-2,7,2
665540,0.07,-0.08,1.00,0.00,-0.37,-0.06,16.00,-3.00,44.00,53.650902,9.698409,4.80,0.11,12,3.824,3,19,-2,7,2
665640,0.06,-0.09,1.00,-0.24,-0.24,0.06,16.00,-2.00,41.00,53.650902,9.698409,4.80,0.11,12,3.735,3,17,-2,7,2
665740,0.06,-0.07,1.00,-0.79,-0.12,0.24,17.00,-3.00,39.00,53.650902,9.698409,4.80,0.11,12,3.774,3,16,-2,7,2
665841,0.07,-0.07,1.00,1.10,-0.24,-0.31,19.00,-2.00,42.00,53.650902,9.698409,4.80,0.11,12,3.764,3,12,-2,7,2
665941,0.06,-0.10,1.00,0.73,-0.12,-0.18,17.00,-1.00,35.00,53.650902,9.698410,4.80,0.26,12,3.725,3,12,-2,7,2
666043,0.06,-0.10,1.00,-0.73,0.12,0.18,15.00,-3.00,39.00,53.650902,9.698410,4.80,0.02,12,3.805,3,21,-2,7,2
666143,0.07,-0.06,1.00,-0.85,-0.06,0.18,13.00,-4.00,35.00,53.650902,9.698410,4.80,0.02,12,3.813,3,21,-2,7,2
666246,0.07,-0.09,1.00,1.16,0.12,-0.37,15.00,-2.00,38.00,53.650902,9.698410,4.80,0.02,12,3.754,4,16,-2,7,2
666350,0.06,-0.10,1.01,-0.06,0.00,-0.43,12.00,-2.00,41.00,53.650902,9.698410,4.80,0.02,12,3.815,3,21,-2,7,2
666450,0.07,-0.08,1.00,-0.12,-0.12,0.55,15.00,-4.00,36.00,53.650902,9.698410,4.80,0.02,12,3.694,3,21,-2,7,2
666550,0.06,-0.08,1.00,-0.31,-0.37,0.24,15.00,-4.00,36.00,53.650902,9.698410,4.80,0.30,12,3.824,3,21,-2,7,2
666650,0.07,-0.08,1.00,0.49,0.49,-0.43,11.00,-2.00,46.00,53.650902,9.698410,4.80,0.30,12,3.694,3,21,-2,7,2
666750,0.07,-0.10,1.00,-0.31,-0.18,-0.43,17.00,-3.00,42.00,53.650902,9.698410,4.80,0.35,12,3.815,4,18,-2,7,2
666853,0.06,-0.07,1.00,0.00,-0.12,0.49,16.00,-2.00,45.00,53.650902,9.698410,4.80,0.35,12,3.814,3,15,-2,7,2
666971,0.07,-0.09,1.00,0.43,0.00,0.00,16.00,-2.00,36.00,53.650902,9.698410,4.80,0.72,12,3.815,3,15,-2,7,2
667071,0.06,-0.09,1.00,-0.31,-0.24,-0.43,12.00,-4.00,45.00,53.650902,9.698410,4.80,0.72,12,3.805,3,28,-2,7,2
667171,0.07,-0.08,1.00,0.06,0.24,-0.06,14.00,-3.00,38.00,53.650902,9.698410,4.80,0.72,12,3.734,3,19,-2,7,2
667271,0.07,-0.09,1.00,0.06,-0.61,0.31,12.00,-2.00,42.00,53.650902,9.698410,4.70,0.26,12,3.774,3,20,-2,7,2
667371,0.06,-0.09,1.00,0.00,0.24,0.18,17.00,-4.00,41.00,53.650902,9.698410,4.70,0.26,12,3.795,3,20,-2,7,2
667505,0.07,-0.08,1.00,0.00,0.06,-0.61,17.00,-4.00,38.00,53.650902,9.698410,4.70,0.26,12,3.824,3,19,-2,7,2
667605,0.07,-0.09,1.00,0.12,0.18,0.18,18.00,-3.00,40.00,53.650902,9.698410,4.70,0.26,12,3.804,3,16,-2,7,2
667705,0.07,-0.08,1.00,-0.06,-0.49,0.12,16.00,-1.00,38.00,53.650902,9.698410,4.70,0.30,12,3.784,3,12,-2,7,2
667831,0.07,-0.08,1.00,-0.06,0.31,-0.31,17.00,-3.00,44.00,53.650902,9.698410,4.70,0.06,12,3.844,3,18,-2,7,2
667931,0.07,-0.08,1.00,-0.06,0.12,-0.31,18.00,-3.00,41.00,53.650902,9.698410,4.70,0.06,12,3.744,3,16,-2,7,2
668031,0.06,-0.08,1.00,0.06,-0.18,0.00,10.00,-1.00,42.00,53.650902,9.698410,4.70,0.06,12,3.824,3,19,-2,7,2
668131,0.06,-0.08,1.00,0.00,-0.06,0.12,16.00,-2.00,43.00,53.650902,9.698410,4.70,0.46,12,3.814,3,16,-2,7,2
668231,0.07,-0.09,1.00,0.06,0.06,-0.24,15.00,-1.00,32.00,53.650902,9.698410,4.70,0.46,12,3.754,3,12,-2,7,2
668331,0.07,-0.08,1.00,-0.12,0.06,-0.18,19.00,-2.00,41.00,53.650902,9.698410,4.70,0.13,12,3.794,3,13,-3,7,2
668431,0.07,-0.08,1.00,0.00,-0.43,0.06,16.00,-2.00,38.00,53.650902,9.698410,4.70,0.13,12,3.734,3,15,-2,7,2
668537,0.07,-0.08,1.00,0.12,0.12,0.18,17.00,-2.00,46.00,53.650902,9.698410,4.70,0.13,12,3.744,3,15,-2,7,2
668637,0.07,-0.08,1.00,0.06,-0.06,-0.18,15.00,-2.00,38.00,53.650902,9.698410,4.70,0.13,12,3.834,3,16,-2,7,2
668740,0.06,-0.08,1.00,0.06,0.06,-0.12,16.00,1.00,43.00,53.650902,9.698410,4.70,0.13,12,3.824,3,7,-2,7,2
668840,0.07,-0.08,1.00,0.06,-0.12,0.12,16.00,1.00,43.00,53.650902,9.698410,4.70,0.54,12,3.824,3,7,-2,7,2
668940,0.06,-0.09,1.00,0.12,0.12,0.06,18.00,-3.00,44.00,53.650902,9.698410,4.70,0.54,12,3.774,3,17,-2,7,2
669040,0.07,-0.08,1.00,0.06,0.00,-0.31,15.00,-1.00,32.00,53.650902,9.698410,4.70,0.54,12,3.834,3,11,-2,7,2
669140,0.07,-0.08,1.00,0.06,-0.43,-0.18,20.00,-3.00,38.00,53.650902,9.698410,4.70,0.54,12,3.784,3,14,-2,7,2
669240,0.06,-0.09,1.00,0.06,-0.31,0.37,12.00,-2.00,41.00,53.650902,9.698410,4.70,0.54,12,3.784,3,20,-2,7,2
669340,0.07,-0.08,1.00,0.06,0.37,0.12,12.00,-1.00,40.00,53.650902,9.698410,4.70,0.54,12,3.754,3,16,-2,7,2
669440,0.07,-0.08,1.00,0.00,-0.12,-0.55,12.00,-1.00,40.00,53.650902,9.698410,4.70,0.54,12,3.814,3,16,-2,7,2
669540,0.07,-0.09,1.00,0.06,0.24,0.12,9.00,-2.00,44.00,53.650902,9.698410,4.70,0.48,12,3.804,3,25,-2,7,2
669712,0.06,-0.08,1.00,0.00,-0.12,0.12,15.00,-3.00,38.00,53.650902,9.698410,4.70,0.48,12,3.814,3,19,-2,7,2
669824,0.07,-0.09,1.00,-0.06,0.00,-0.18,17.00,-2.00,42.00,53.650902,9.698410,4.70,0.06,12,3.794,3,15,-2,7,2
669925,0.06,-0.08,1.00,0.06,-0.37,0.24,15.00,-4.00,40.00,53.650902,9.698410,4.70,0.06,12,3.834,3,22,-2,7,2
670026,0.07,-0.09,1.00,0.06,0.37,0.06,12.00,-1.00,44.00,53.650902,9.698410,4.70,0.13,12,3.794,3,17,-2,7,2
670126,0.07,-0.08,1.00,0.00,-0.31,-0.61,18.00,-1.00,38.00,53.650902,9.698410,4.70,0.13,12,3.764,3,11,-2,7,2
670227,0.07,-0.08,1.00,0.12,0.24,0.00,16.00,-3.00,37.00,53.650902,9.698410,4.70,0.13,12,3.764,3,18,-2,7,2
670327,0.06,-0.09,1.00,0.06,-0.24,0.31,17.00,-1.00,42.00,53.650902,9.698410,4.70,0.13,12,3.824,3,12,-2,7,2
670427,0.06,-0.08,1.00,-0.12,0.00,0.06,16.00,-4.00,41.00,53.650902,9.698410,4.60,0.13,12,3.814,3,21,-2,7,2
670527,0.07,-0.08,1.00,0.18,0.06,-0.06,14.00,-1.00,43.00,53.650902,9.698410,4.60,0.06,12,3.724,3,14,-2,7,2
670627,0.07,-0.09,1.00,-0.18,-0.18,0.00,14.00,-1.00,43.00,53.650902,9.698410,4.60,0.06,12,3.754,3,15,-2,7,2
670727,0.07,-0.08,1.00,0.06,0.18,0.24,16.00,-1.00,42.00,53.650902,9.698410,4.60,0.06,12,3.744,3,12,-2,7,2
670845,0.07,-0.09,1.00,0.06,-0.31,-0.12,16.00,-1.00,46.00,53.650902,9.698410,4.60,0.06,12,3.854,3,14,-2,7,2
670945,0.06,-0.08,1.00,0.00,0.24,0.00,11.00,-2.00,39.00,53.650902,9.698410,4.60,0.06,12,3.824,3,21,-2,7,2
671045,0.07,-0.09,1.00,0.06,0.12,-0.18,15.00,1.00,36.00,53.650902,9.698410,4.60,0.06,12,3.794,3,6,-2,7,2
671148,0.07,-0.08,1.00,0.12,-0.06,0.00,15.00,0.00,40.00,53.650902,9.698410,4.60,0.37,12,3.814,3,10,-2,7,2
671248,0.07,-0.08,1.00,0.00,-0.24,0.00,18.00,-1.00,38.00,53.650902,9.698410,4.60,0.37,12,3.834,3,11,-2,7,2
671348,0.06,-0.08,1.00,0.00,0.00,-0.18,15.00,-3.00,41.00,53.650902,9.698410,4.60,0.09,12,3.754,3,19,-2,7,2
671448,0.07,-0.08,1.00,0.06,0.00,-0.31,16.00,-2.00,39.00,53.650902,9.698410,4.60,0.09,12,3.794,3,15,-2,7,2
671548,0.07,-0.08,1.00,0.24,-0.31,0.12,20.00,-2.00,42.00,53.650902,9.698410,4.60,0.09,12,3.794,3,13,-2,7,2
671648,0.07,-0.09,1.00,-0.12,-0.12,0.37,12.00,-2.00,41.00,53.650902,9.698410,4.60,0.09,12,3.775,3,20,-2,7,2
671748,0.07,-0.08,1.00,0.00,-0.12,0.06,18.00,-3.00,35.00,53.650902,9.698410,4.60,0.09,12,3.814,3,15,-2,7,2
671888,0.07,-0.09,1.00,0.06,0.43,-0.43,17.00,-2.00,44.00,53.650902,9.698410,4.60,0.28,12,3.795,3,16,-2,7,2
671992,0.07,-0.08,1.00,-0.06,-0.24,0.18,8.00,-2.00,42.00,53.650902,9.698410,4.60,0.04,12,3.804,4,26,-2,7,2
672092,0.06,-0.08,1.00,0.00,-0.43,0.31,12.00,0.00,36.00,53.650902,9.698410,4.60,0.04,12,3.814,3,11,-2,7,2
672193,0.06,-0.09,1.00,0.12,0.37,-0.37,15.00,-1.00,35.00,53.650902,9.698410,4.60,0.04,12,3.744,3,12,-2,7,2
672293,0.07,-0.08,1.00,-0.12,-0.06,-0.37,16.00,-3.00,41.00,53.650902,9.698410,4.60,0.04,12,3.814,3,18,-2,7,2
672393,0.07,-0.08,1.00,0.12,0.00,0.37,16.00,-3.00,39.00,53.650902,9.698410,4.60,0.04,12,3.814,3,17,-2,7,2
672493,0.07,-0.09,1.00,0.31,-0.61,0.12,17.00,-2.00,40.00,53.650902,9.698410,4.60,0.04,12,3.824,3,15,-2,7,2
672593,0.07,-0.09,1.00,-0.06,0.12,-0.18,12.00,-2.00,41.00,53.650902,9.698410,4.60,0.04,12,3.845,3,20,-2,7,2
672694,0.07,-0.08,1.00,-0.06,0.31,-0.24,16.00,-1.00,43.00,53.650902,9.698410,4.60,0.04,12,3.754,3,13,-2,7,2
672794,0.07,-0.08,1.00,0.18,-0.31,0.12,19.00,-2.00,38.00,53.650902,9.698409,4.50,0.09,12,3.744,3,13,-2,7,2
672894,0.06,-0.09,1.00,0.12,0.12,0.12,16.00,-3.00,43.00,53.650902,9.698409,4.50,0.22,12,3.844,3,19,-2,7,2
672994,0.07,-0.09,1.00,0.00,0.00,-0.37,15.00,-5.00,41.00,53.650902,9.698409,4.50,0.22,12,3.864,3,25,-2,7,2
673094,0.07,-0.08,1.00,0.00,0.00,0.00,19.00,-3.00,41.00,53.650902,9.698409,4.50,0.22,12,3.804,3,16,-2,7,2
673194,0.07,-0.08,1.00,0.12,-0.06,0.24,17.00,-1.00,40.00,53.650902,9.698409,4.50,0.22,12,3.824,3,12,-2,7,2
673294,0.06,-0.09,1.00,0.06,-0.18,-0.24,10.00,-4.00,40.00,53.650902,9.698409,4.50,0.22,12,3.714,3,30,-2,7,2
673394,0.07,-0.08,1.00,-0.06,0.31,-0.24,15.00,-2.00,38.00,53.650902,9.698409,4.50,0.22,12,3.844,3,16,-2,7,2
673494,0.07,-0.08,1.00,0.00,-0.18,0.00,17.00,-1.00,39.00,53.650902,9.698409,4.50,0.15,12,3.814,3,11,-2,7,2
673594,0.06,-0.08,1.00,0.18,-0.12,0.18,17.00,-4.00,41.00,53.650902,9.698409,4.50,0.15,12,3.814,3,20,-2,7,2
673694,0.07,-0.09,1.00,0.12,0.06,-0.12,15.00,-2.00,41.00,53.650902,9.698409,4.50,0.39,12,3.794,3,17,-2,7,2
673794,0.07,-0.08,1.00,-0.06,0.00,-0.24,17.00,-5.00,39.00,53.650902,9.698409,4.50,0.02,12,3.824,3,22,-2,7,2
673896,0.07,-0.08,1.00,0.00,-0.06,0.06,15.00,-3.00,39.00,53.650902,9.698409,4.50,0.02,12,3.814,3,19,-2,7,2
673996,0.07,-0.08,1.00,0.06,-0.12,-0.06,16.00,-2.00,41.00,53.650902,9.698409,4.50,0.02,12,3.854,3,15,-2,7,2
674097,0.07,-0.09,1.00,0.06,0.12,-0.06,17.00,-1.00,38.00,53.650902,9.698409,4.50,0.02,12,3.804,3,11,-2,7,2
674211,0.07,-0.08,1.00,0.00,-0.06,-0.12,16.00,-4.00,43.00,53.650902,9.698409,4.50,0.02,12,3.764,3,21,-2,7,2
674311,0.07,-0.08,1.00,0.06,-0.06,0.00,14.00,-4.00,40.00,53.650902,9.698409,4.50,0.02,12,3.764,3,23,-2,7,2
674411,0.07,-0.09,1.00,0.00,-0.12,-0.06,16.00,-4.00,36.00,53.650902,9.698409,4.50,0.02,12,3.825,3,20,-2,7,2
674511,0.07,-0.08,1.00,0.00,0.00,0.00,17.00,-3.00,40.00,53.650902,9.698409,4.50,0.02,12,3.784,3,17,-2,7,2
674611,0.07,-0.08,1.00,0.06,-0.18,-0.12,14.00,-4.00,42.00,53.650902,9.698409,4.50,0.02,12,3.814,3,23,-2,7,2
674711,0.06,-0.09,1.00,0.18,-0.18,0.00,15.00,-3.00,37.00,53.650902,9.698409,4.50,0.28,12,3.724,3,19,-2,7,2
674811,0.06,-0.08,1.00,0.00,0.06,0.06,18.00,-2.00,41.00,53.650902,9.698409,4.50,0.22,12,3.834,3,14,-2,7,2
674911,0.07,-0.08,1.00,0.00,0.00,-0.24,15.00,-2.00,38.00,53.650902,9.698409,4.00,0.22,12,3.834,3,16,-2,7,2
675011,0.07,-0.09,1.00,0.12,-0.12,0.00,18.00,-3.00,38.00,53.650902,9.698409,4.00,0.22,12,3.834,3,16,-2,7,2
675112,0.07,-0.08,1.00,-0.06,-0.12,0.24,15.00,-3.00,44.00,53.650902,9.698409,4.00,0.22,12,3.734,4,19,-2,7,2
675212,0.07,-0.09,1.00,0.24,-0.06,-0.31,15.00,-3.00,42.00,53.650902,9.698409,4.00,0.22,12,3.724,3,20,-2,7,2
675312,0.06,-0.09,1.00,-0.12,-0.18,-0.12,15.00,-1.00,43.00,53.650902,9.698409,4.00,0.22,12,3.765,3,14,-2,7,2
675413,0.07,-0.08,1.00,0.18,-0.24,0.31,15.00,-2.00,42.00,53.650902,9.698409,4.00,0.22,12,3.724,3,15,-2,7,2
675513,0.07,-0.09,0.99,0.18,-0.24,0.06,15.00,-2.00,39.00,53.650902,9.698409,4.00,0.22,12,3.815,3,17,-2,7,2
675613,0.07,-0.08,1.01,-0.06,0.31,-0.24,17.00,-1.00,44.00,53.650902,9.698409,4.00,0.22,12,3.734,4,12,-2,7,2
675713,0.08,-0.08,1.00,0.06,0.06,-0.37,16.00,0.00,45.00,53.650902,9.698409,4.50,0.22,12,3.824,4,9,-2,7,2
675813,0.06,-0.09,1.00,0.37,-0.24,0.00,15.00,-1.00,39.00,53.650902,9.698409,4.50,0.44,12,3.795,3,14,-2,7,2
675916,0.05,-0.09,1.00,0.00,-0.43,0.06,12.00,-2.00,42.00,53.650902,9.698409,4.50,0.44,12,3.845,3,21,-2,7,2
676017,0.06,-0.09,1.00,-0.24,-0.43,0.43,15.00,0.00,38.00,53.650902,9.698409,4.50,0.44,12,3.845,3,10,-2,7,2
676117,0.08,-0.08,1.02,0.31,0.24,0.24,16.00,-1.00,42.00,53.650902,9.698409,4.50,0.44,12,3.824,4,12,-2,7,2
676217,0.09,-0.09,1.00,0.43,-0.31,-0.43,18.00,-1.00,41.00,53.650902,9.698409,4.50,0.44,12,3.825,5,12,-3,7,2
676317,0.06,-0.10,1.02,-0.49,0.73,-0.24,17.00,-1.00,38.00,53.650902,9.698409,4.40,0.17,12,3.855,3,13,-2,7,2
676417,0.05,-0.07,1.00,0.06,0.18,-0.31,17.00,-3.00,42.00,53.650902,9.698409,4.40,0.17,12,3.844,2,17,-2,7,2
676517,0.07,-0.08,1.00,0.06,0.98,-0.43,19.00,-3.00,42.00,53.650902,9.698409,4.40,0.17,12,3.844,3,16,-2,7,2
676617,0.08,-0.09,1.01,0.06,-0.31,-0.31,19.00,-1.00,41.00,53.650902,9.698409,4.40,0.17,12,3.855,4,11,-2,7,2
676717,0.08,-0.08,0.99,-0.18,-0.73,0.49,16.00,-4.00,38.00,53.650902,9.698409,4.40,0.39,12,3.834,4,20,-3,7,2
676817,0.05,-0.07,1.00,0.06,-0.79,0.92,17.00,-2.00,42.00,53.650902,9.698409,4.40,0.39,12,3.824,3,14,-2,7,2
676917,0.03,-0.08,0.98,0.37,0.24,-0.18,18.00,-3.00,39.00,53.650902,9.698409,4.40,0.33,12,3.854,1,17,-2,7,2
677017,0.06,-0.10,0.99,0.00,0.55,-1.04,16.00,-2.00,44.00,53.650902,9.698409,4.40,0.33,12,3.785,3,18,-2,7,2
677136,0.08,-0.08,1.01,-0.12,-0.12,0.55,17.00,-3.00,41.00,53.650902,9.698409,4.40,0.19,12,3.814,4,17,-2,7,2
677236,0.10,-0.08,0.99,-0.55,-0.12,1.28,16.00,-2.00,41.00,53.650902,9.698409,4.40,0.19,12,3.814,5,14,-2,7,2
677336,0.05,-0.08,1.01,0.49,0.24,-0.18,17.00,0.00,44.00,53.650902,9.698409,4.40,0.15,12,3.834,2,10,-2,7,2
677436,0.04,-0.08,0.99,0.37,1.59,-2.01,17.00,-2.00,39.00,53.650902,9.698409,4.40,0.15,12,3.844,2,15,-2,7,2
677558,0.05,-0.09,1.00,0.31,-0.49,-1.71,18.00,-3.00,43.00,53.650902,9.698409,4.40,0.30,12,3.815,3,18,-2,7,2
677658,0.09,-0.07,1.00,-0.18,-1.16,1.40,14.00,-1.00,42.00,53.650902,9.698409,4.40,0.30,12,3.713,5,11,-2,7,2
677758,0.06,-0.08,1.00,0.98,-0.55,1.10,16.00,-3.00,41.00,53.650902,9.698409,4.40,0.30,12,3.834,3,18,-2,7,2
677858,0.05,-0.10,1.01,-0.55,0.18,-0.98,11.00,-2.00,43.00,53.650902,9.698409,4.40,0.30,12,3.835,3,25,-2,7,2
677973,0.05,-0.08,1.00,0.00,2.08,0.00,16.00,-1.00,39.00,53.650902,9.698409,4.40,0.30,12,3.814,3,12,-2,7,2
678073,0.09,-0.08,1.00,0.12,-2.99,-0.06,14.00,0.00,43.00,53.650902,9.698409,4.40,0.59,12,3.834,5,10,-2,7,2
678173,0.06,-0.06,0.99,0.79,-1.89,0.31,14.00,0.00,43.00,53.650902,9.698409,4.40,0.59,12,3.813,3,9,-2,7,2
678273,0.03,-0.12,0.99,0.61,-0.55,0.06,17.00,-2.00,44.00,53.650902,9.698409,4.40,0.19,12,3.856,1,20,-2,7,2
678373,0.05,-0.09,1.00,-0.49,-0.24,-0.31,17.00,-2.00,44.00,53.650902,9.698409,4.40,0.19,12,3.835,3,17,-2,7,2
678473,0.06,-0.09,1.00,-0.37,1.59,-0.61,17.00,-3.00,46.00,53.650902,9.698409,4.40,0.19,12,3.885,3,19,-2,7,2
678573,0.05,-0.08,1.01,-0.79,-1.89,-0.37,17.00,-3.00,46.00,53.650902,9.698409,4.40,0.15,12,3.864,2,19,-2,7,2
678685,0.03,-0.08,1.01,-0.12,0.31,1.46,15.00,-1.00,40.00,53.650902,9.698409,4.40,0.15,12,3.794,1,14,-2,7,2
678785,0.04,-0.08,1.00,0.24,0.67,0.31,16.00,-2.00,45.00,53.650902,9.698409,4.40,0.15,12,3.804,2,16,-2,7,2
678885,0.04,-0.09,1.02,0.92,-0.43,-1.10,15.00,-2.00,47.00,53.650902,9.698409,4.40,0.24,12,3.834,2,19,-3,7,2
678985,0.07,-0.09,0.98,-0.12,-0.12,0.37,16.00,-2.00,38.00,53.650902,9.698409,4.40,0.24,12,3.825,4,16,-2,7,2
679085,0.08,-0.06,1.00,0.67,-1.77,1.77,15.00,-1.00,41.00,53.650902,9.698409,4.40,0.24,12,3.813,4,10,-2,7,2
679185,0.05,-0.12,1.00,1.53,-0.67,0.18,18.00,-3.00,42.00,53.650902,9.698409,4.40,0.24,12,3.826,2,21,-2,7,2
679285,0.03,-0.11,0.99,-0.37,0.43,-1.10,15.00,-2.00,43.00,53.650902,9.698409,4.30,0.17,12,3.866,1,22,-2,7,2
679385,0.07,-0.08,1.01,-0.61,0.98,-0.37,19.00,-2.00,41.00,53.650902,9.698409,4.30,0.17,12,3.844,3,12,-2,7,2
679485,0.10,-0.10,1.03,-1.46,2.50,0.12,19.00,-2.00,43.00,53.650902,9.698409,4.30,0.17,12,3.855,5,14,-2,7,2
679585,0.08,-0.07,0.98,-2.69,-1.34,-0.31,16.00,-2.00,43.00,53.650902,9.698409,4.30,0.06,12,3.863,4,13,-2,7,2
679685,0.03,-0.01,0.97,2.75,0.49,-0.79,15.00,-2.00,44.00,53.650902,9.698409,4.30,0.63,12,3.800,1,8,-2,7,2
679798,0.04,-0.17,0.96,3.36,-0.61,-0.73,18.00,-1.00,40.00,53.650902,9.698409,4.30,0.63,12,3.849,2,21,-2,7,2
679898,0.06,-0.13,0.98,-0.92,-0.06,0.06,17.00,-2.00,40.00,53.650902,9.698409,4.30,0.15,12,3.817,3,19,-2,7,2
680006,0.06,-0.07,0.98,-2.01,0.85,0.24,18.00,-3.00,41.00,53.650902,9.698409,4.30,0.15,12,3.774,3,16,-2,7,2
680106,0.05,-0.05,0.98,-0.37,-0.37,-0.18,15.00,-2.00,42.00,53.650902,9.698409,4.30,0.15,12,3.723,2,14,-2,7,2
680206,0.04,-0.09,0.98,-0.85,0.24,0.37,16.00,-2.00,38.00,53.650902,9.698409,4.30,0.15,12,3.805,2,16,-2,7,2
680306,0.08,-0.07,1.00,0.92,0.98,0.61,16.00,-4.00,38.00,53.650902,9.698409,4.30,0.15,12,3.764,4,19,-2,7,2
680406,0.07,-0.11,1.01,0.49,-0.73,0.12,18.00,-5.00,41.00,53.650902,9.698409,4.40,0.15,12,3.826,3,24,-2,7,2
680506,0.05,-0.08,1.01,-0.61,0.37,-0.49,16.00,-1.00,39.00,53.650902,9.698409,4.40,0.28,12,3.704,2,13,-2,7,2
680606,0.05,-0.08,1.00,0.00,0.37,-0.43,16.00,-3.00,36.00,53.650902,9.698409,4.40,0.28,12,3.834,3,17,-2,7,2
680706,0.06,-0.09,1.00,0.18,-0.55,0.43,18.00,-1.00,35.00,53.650902,9.698409,4.40,0.33,12,3.785,3,11,-2,7,2
680806,0.06,-0.08,1.00,-0.12,0.24,0.49,13.00,-1.00,40.00,53.650902,9.698409,4.40,0.33,12,3.834,3,15,-3,7,2
680906,0.08,-0.08,0.99,-0.06,0.43,-0.67,17.00,-2.00,35.00,53.650902,9.698410,4.40,0.50,12,3.704,4,13,-2,7,2
681006,0.08,-0.09,1.00,-0.24,-0.67,-0.06,14.00,-2.00,41.00,53.650902,9.698410,4.40,0.50,12,3.825,4,17,-2,7,2
681106,0.06,-0.08,1.00,0.00,-0.55,1.22,19.00,-2.00,46.00,53.650902,9.698410,4.40,0.50,12,3.834,3,14,-2,7,2
681206,0.07,-0.08,1.00,0.43,0.06,0.18,16.00,-1.00,41.00,53.650902,9.698410,4.40,0.09,12,3.804,4,12,-2,7,2
681310,0.06,-0.10,1.01,0.37,-0.12,-0.85,17.00,-1.00,41.00,53.650902,9.698410,4.40,0.09,12,3.705,3,13,-2,7,2
681410,0.06,-0.08,1.00,0.18,0.31,0.49,15.00,-1.00,42.00,53.650902,9.698410,4.40,0.46,12,3.764,3,14,-2,7,2
681510,0.06,-0.07,1.00,0.98,-0.06,0.79,18.00,-3.00,40.00,53.650902,9.698410,4.40,0.46,12,3.724,3,15,-2,7,2
681610,0.06,-0.10,1.00,1.28,-0.31,-0.31,19.00,-2.00,42.00,53.650902,9.698410,4.40,0.46,12,3.825,3,16,-2,7,2
681710,0.06,-0.15,1.01,-1.34,0.18,-0.61,15.00,-2.00,40.00,53.650902,9.698410,4.30,0.46,12,3.838,3,23,-2,7,2
681810,0.07,-0.05,1.00,-3.30,0.67,-0.12,17.00,-1.00,43.00,53.650902,9.698410,4.30,0.06,12,3.823,3,9,-3,7,2
681910,0.06,-0.03,0.99,0.06,0.12,0.61,17.00,-2.00,43.00,53.650902,9.698410,4.30,0.06,12,3.701,3,9,-2,7,2
682072,0.07,-0.14,1.01,0.55,-0.92,-0.61,13.00,-1.00,40.00,53.650902,9.698410,4.30,0.06,12,3.737,3,21,-2,7,2
682173,0.06,-0.10,1.02,0.31,0.98,-0.24,16.00,-1.00,46.00,53.650902,9.698410,4.30,0.06,12,3.825,3,15,-2,7,2
682273,0.06,-0.06,1.01,-0.18,1.16,-0.55,13.00,-2.00,39.00,53.650902,9.698410,4.40,0.44,12,3.753,3,15,-2,7,2
682373,0.06,-0.12,1.00,-0.67,-1.71,-0.24,11.00,-1.00,40.00,53.650902,9.698410,4.40,0.44,12,3.816,3,22,-2,7,2
682473,0.11,-0.06,1.00,-1.10,1.16,0.67,17.00,-1.00,41.00,53.650902,9.698410,4.40,0.44,12,3.823,6,8,-2,7,2
682573,0.00,-0.07,1.02,1.83,1.22,-0.61,15.00,-2.00,41.00,53.650902,9.698410,4.40,0.44,12,3.753,0,17,-2,7,2
682673,0.04,-0.13,1.00,0.73,-0.18,-0.79,17.00,-2.00,42.00,53.650902,9.698410,4.40,0.44,12,3.797,2,21,-2,7,2
682773,0.08,-0.09,1.00,-0.85,0.85,0.67,15.00,-2.00,37.00,53.650902,9.698410,4.40,0.44,12,3.834,4,15,-2,7,2
682873,0.09,-0.07,1.00,0.79,0.61,0.37,12.00,-1.00,38.00,53.650902,9.698410,4.40,0.44,12,3.793,5,12,-2,7,2
682973,0.07,-0.11,1.01,0.98,0.55,-0.79,15.00,-2.00,42.00,53.650902,9.698410,4.30,0.44,12,3.835,3,19,-2,7,2
683073,0.06,-0.09,0.99,-0.24,1.04,-0.18,16.00,-2.00,42.00,53.650902,9.698410,4.30,0.11,12,3.835,3,17,-2,7,2
683174,0.07,-0.08,1.00,0.24,0.06,0.18,18.00,-1.00,42.00,53.650902,9.698410,4.30,0.13,12,3.794,4,11,-2,7,2
683274,0.08,-0.09,1.00,0.18,0.49,-0.06,14.00,-2.00,39.00,53.650902,9.698410,4.30,0.13,12,3.795,4,17,-2,7,2
683374,0.08,-0.09,1.00,-0.43,-0.67,-0.37,12.00,-2.00,43.00,53.650902,9.698410,4.30,0.13,12,3.825,4,20,-2,7,2
683474,0.09,-0.08,1.00,-0.06,-1.22,0.24,12.00,-3.00,41.00,53.650902,9.698410,4.30,0.13,12,3.724,4,22,-2,7,2
683574,0.05,-0.10,1.00,0.24,-0.18,0.55,16.00,-2.00,41.00,53.650902,9.698410,4.30,0.13,12,3.745,2,17,-2,7,2
683674,0.06,-0.10,1.00,0.06,0.06,-0.12,11.00,-2.00,42.00,53.650902,9.698410,4.30,0.13,12,3.715,3,23,-2,7,2
683774,0.07,-0.09,0.99,-0.12,-0.61,-0.43,18.00,-4.00,38.00,53.650902,9.698410,4.30,0.37,12,3.825,4,19,-2,7,2
683874,0.10,-0.09,1.00,0.24,1.10,0.31,16.00,-3.00,35.00,53.650902,9.698410,4.30,0.11,12,3.795,5,17,-2,7,2
683974,0.07,-0.08,1.00,-0.24,-0.18,-0.55,17.00,-3.00,44.00,53.650902,9.698410,4.30,0.11,12,3.824,4,18,-2,7,2
684078,0.08,-0.09,1.00,0.55,0.24,-0.79,15.00,-2.00,43.00,53.650902,9.698410,4.30,0.11,12,3.765,4,17,-2,7,2
684178,0.07,-0.11,1.01,-0.24,-0.55,0.49,17.00,-3.00,39.00,53.650902,9.698410,4.30,0.11,12,3.816,4,19,-2,7,2
684278,0.06,-0.05,1.00,0.00,-0.79,0.24,16.00,-1.00,40.00,53.650902,9.698410,4.30,0.11,12,3.753,3,9,-2,7,2
684378,0.05,-0.12,1.00,0.79,0.18,-0.37,16.00,-3.00,43.00,53.650902,9.698410,4.30,0.11,12,3.826,3,23,-2,7,2
684478,0.07,-0.09,0.99,-0.79,0.49,-0.12,13.00,-1.00,42.00,53.650902,9.698410,4.30,0.11,12,3.845,3,16,-2,7,2
684578,0.06,-0.06,0.99,0.49,0.43,0.18,14.00,-1.00,43.00,53.650902,9.698410,4.30,0.17,12,3.823,3,12,-2,7,2
684678,0.07,-0.11,1.00,0.31,-0.43,0.31,16.00,-1.00,43.00,53.650902,9.698410,4.30,0.17,12,3.806,3,16,-2,7,2
684778,0.06,-0.08,1.01,-0.49,0.61,-0.24,14.00,-2.00,42.00,53.650902,9.698410,4.30,0.17,12,3.824,3,17,-3,7,2
684878,0.07,-0.07,1.01,0.06,-0.31,-0.67,17.00,-3.00,44.00,53.650902,9.698410,4.30,0.17,12,3.824,3,16,-2,7,2
684981,0.07,-0.11,1.00,0.06,-0.92,0.55,19.00,-2.00,42.00,53.650902,9.698410,4.30,0.17,12,3.826,4,15,-2,7,2
685081,0.07,-0.09,1.01,0.12,0.85,0.61,16.00,-2.00,40.00,53.650902,9.698410,4.30,0.17,12,3.764,3,15,-2,7,2
685181,0.04,-0.11,0.99,0.85,0.31,-0.67,17.00,-2.00,45.00,53.650902,9.698410,4.30,0.17,12,3.826,2,20,-2,7,2
685281,0.08,-0.09,1.02,-0.61,1.16,-0.92,16.00,-3.00,39.00,53.650902,9.698410,4.20,0.13,12,3.804,4,18,-2,7,2
685384,0.10,-0.08,1.00,0.49,-0.92,0.24,14.00,-2.00,33.00,53.650902,9.698410,4.20,0.15,12,3.834,5,14,-2,7,2
685484,0.07,-0.09,1.00,0.43,0.06,1.10,16.00,-4.00,40.00,53.650902,9.698410,4.20,0.15,12,3.835,3,21,-2,7,2
685584,0.06,-0.09,0.99,-0.06,0.61,-0.73,16.00,-2.00,42.00,53.650902,9.698410,4.20,0.15,12,3.705,3,17,-2,7,2
685684,0.09,-0.09,1.00,0.06,0.06,-1.10,16.00,-2.00,42.00,53.650902,9.698410,4.20,0.15,12,3.724,4,15,-2,7,2
685784,0.11,-0.10,1.00,0.06,0.24,0.73,17.00,-3.00,38.00,53.650902,9.698410,4.20,0.15,12,3.735,6,17,-2,7,2
685884,0.10,-0.08,1.00,-0.12,-1.10,0.06,16.00,-3.00,45.00,53.650902,9.698410,4.20,0.15,12,3.764,5,17,-2,7,2
685984,-0.00,-0.08,0.99,0.24,-2.08,0.55,16.00,-2.00,41.00,53.650902,9.698410,4.20,0.15,12,3.774,0,18,-2,7,2
686109,0.00,-0.10,1.01,-0.37,1.83,0.67,15.00,-4.00,39.00,53.650902,9.698410,4.20,0.20,12,3.825,0,27,-2,7,2
686209,0.08,-0.09,1.00,-0.24,-0.79,-0.79,17.00,-5.00,36.00,53.650902,9.698410,4.20,0.20,12,3.824,4,21,-2,7,2
686309,0.08,-0.09,1.01,-0.12,-1.89,0.18,17.00,-5.00,36.00,53.650902,9.698410,4.20,0.20,12,3.865,4,21,-2,7,2
686422,0.07,-0.10,1.00,0.12,-0.18,1.65,16.00,-1.00,37.00,53.650902,9.698410,4.20,0.20,12,3.705,4,13,-2,7,2
686522,0.08,-0.06,1.00,-0.18,0.37,0.61,15.00,-5.00,41.00,53.650902,9.698410,4.20,0.20,12,3.773,4,22,-2,7,2
686623,0.07,-0.09,0.99,0.85,-0.31,-1.04,17.00,-4.00,38.00,53.650902,9.698410,4.20,0.15,12,3.825,4,20,-2,7,2
686723,0.07,-0.13,1.00,-1.46,-0.18,-1.40,17.00,-5.00,41.00,53.650902,9.698410,4.20,0.15,12,3.717,4,26,-2,7,2
686823,0.07,-0.04,0.99,-1.77,0.00,-0.49,16.00,-3.00,37.00,53.650902,9.698410,4.20,0.15,12,3.732,3,13,-2,7,2
686923,0.05,-0.09,1.01,0.85,-0.31,0.43,15.00,-2.00,41.00,53.650902,9.698410,4.20,0.22,12,3.784,2,17,-2,7,2
687023,0.08,-0.08,1.00,1.16,-0.43,0.92,17.00,-3.00,42.00,53.650902,9.698410,4.20,0.22,12,3.874,4,17,-2,7,2
687123,0.08,-0.11,0.99,0.12,-0.67,0.18,20.00,-3.00,40.00,53.650902,9.698410,4.10,0.43,12,3.826,4,17,-2,7,2
687237,0.07,-0.11,1.04,-2.81,-0.24,0.49,16.00,-3.00,40.00,53.650902,9.698410,4.10,0.43,12,3.765,3,20,-2,7,2
687337,0.08,0.03,0.99,-4.46,-0.37,2.14,17.00,-1.00,43.00,53.650902,9.698410,4.10,0.43,12,3.82-1,4,0,-2,7,2
687437,0.07,-0.13,0.98,12.27,-0.49,-1.89,17.00,-3.00,37.00,53.650902,9.698410,4.10,0.43,12,3.847,3,21,-2,7,2
687575,0.09,-0.01,1.02,-10.74,2.32,-0.12,14.00,1.00,36.00,53.650902,9.698410,4.10,0.43,12,3.820,5,-1,-2,7,2
687675,0.03,-0.09,1.00,4.58,-2.81,2.08,17.00,-1.00,42.00,53.650902,9.698409,4.10,0.59,12,3.825,1,14,-2,7,2
687776,0.00,-0.11,0.99,0.79,0.24,0.73,13.00,-1.00,42.00,53.650902,9.698409,4.10,0.59,12,3.786,0,24,-2,7,2
687876,0.07,-0.00,0.93,-5.07,1.65,-0.37,18.00,-1.00,43.00,53.650902,9.698409,4.10,0.59,12,3.810,3,3,-3,7,2
687976,0.10,-0.32,1.02,7.51,-3.91,-0.55,13.00,-3.00,41.00,53.650902,9.698409,4.10,0.59,12,3.8217,5,40,-2,7,2
688076,0.04,0.14,1.02,-14.89,1.71,0.24,16.00,0.00,46.00,53.650902,9.698409,4.10,0.20,12,3.70-7,2,-18,-2,7,2
688187,-0.04,-0.19,0.97,12.21,-1.40,0.98,12.00,-2.00,36.00,53.650902,9.698409,4.10,0.20,12,3.8310,-2,39,-2,7,2
688287,0.07,0.02,1.00,-2.99,-1.46,0.24,16.00,-1.00,39.00,53.650902,9.698409,4.10,0.15,12,3.820,4,1,-2,7,2
688387,0.09,-0.19,0.97,7.45,1.04,-0.85,16.00,-1.00,40.00,53.650902,9.698409,4.10,0.15,12,3.9010,5,22,-2,7,2
688489,0.05,-0.15,1.02,-6.29,0.55,-0.92,15.00,-2.00,35.00,53.650902,9.698409,4.10,0.15,12,3.798,2,22,-2,7,2
688589,0.08,0.03,0.93,-1.40,-0.31,0.31,16.00,-3.00,39.00,53.650902,9.698409,4.10,0.15,12,3.79-1,4,5,-2,7,2
688690,0.05,-0.11,1.08,6.96,-0.37,0.92,18.00,-2.00,37.00,53.650902,9.698409,4.10,0.15,12,3.805,2,15,-2,7,2
688790,0.02,-0.19,1.04,-3.60,-0.24,-1.22,18.00,-2.00,39.00,53.650902,9.698409,4.10,0.15,12,3.6710,1,25,-2,7,2
688890,0.06,-0.02,1.00,-5.13,1.65,-1.71,14.00,-3.00,40.00,53.650902,9.698409,4.10,0.15,12,3.821,3,13,-2,7,2
688990,0.09,-0.05,1.04,-1.89,-0.18,-0.67,15.00,-3.00,39.00,53.650902,9.698409,4.10,0.15,12,3.792,5,14,-2,7,2
689090,0.06,-0.04,1.02,4.76,-0.85,0.49,17.00,-1.00,45.00,53.650902,9.698409,4.10,0.11,12,3.822,3,8,-2,7,2
689190,0.04,-0.14,0.98,2.32,1.22,1.34,16.00,-1.00,43.00,53.650902,9.698409,4.10,0.11,12,3.797,2,20,-2,7,2
689291,0.07,-0.11,1.02,-1.71,-0.67,0.00,16.00,-1.00,43.00,53.650902,9.698409,4.10,0.17,12,3.826,3,16,-2,7,2
689394,0.08,-0.04,0.98,-2.93,0.79,-0.31,17.00,-3.00,42.00,53.650902,9.698409,4.10,0.17,12,3.772,4,12,-2,7,2
689497,0.07,-0.08,0.96,1.53,0.12,0.06,20.00,-1.00,44.00,53.650902,9.698409,4.10,0.17,12,3.824,4,10,-2,7,2
689601,0.06,-0.08,1.00,2.01,-0.98,0.55,18.00,-2.00,38.00,53.650902,9.698409,4.10,0.24,12,3.824,3,13,-3,7,2
689701,0.07,-0.13,1.01,0.18,0.43,0.18,18.00,-2.00,40.00,53.650902,9.698409,4.10,0.24,12,3.827,3,18,-2,7,2
