timestamp,accX,accY,accZ,gyroX,gyroY,gyroZ,magX,magY,magZ,latitude,longitude,gpsAltitude,Speed,SatCount,roll,pitch,yaw,pressure,temperature,paltitude
181026,-0.02,0.07,1.05,26.18,-30.88,-9.22,-5.50,0.00,39.00,53.650921,9.698076,8.70,0.30,12,4.153,1,-13,-4,6,2
183456,-0.18,0.05,0.88,11.17,-2.08,-5.31,1.50,-2.00,27.00,53.650921,9.698076,8.70,0.30,12,4.072,1,-13,-4,6,2
183560,-0.17,0.07,1.00,1.16,1.83,-2.44,-1.50,3.00,30.00,53.650917,9.698082,7.70,0.30,12,4.102,0,-15,-4,6,2
183660,-0.10,0.02,1.07,0.18,-6.04,1.53,-9.50,3.00,37.00,53.650917,9.698082,7.70,0.17,12,3.911,2,-19,-4,6,2
183760,-0.18,0.03,0.98,0.18,1.28,-1.59,-8.50,-3.00,41.00,53.650917,9.698082,7.70,0.17,12,4.071,1,-10,-4,6,2
183860,-0.15,0.03,0.98,-1.04,-1.71,-0.98,-7.50,-1.00,41.00,53.650917,9.698082,7.80,0.07,12,3.801,0,14,-4,6,2
183961,-0.15,0.05,1.03,0.37,9.64,1.28,-6.50,-1.00,36.00,53.650917,9.698082,7.80,0.06,12,3.900,-6,62,-4,6,2
184061,-0.14,0.05,0.95,-1.10,-0.67,2.38,-4.50,-1.00,29.00,53.650917,9.698082,7.80,0.06,12,4.02-1,-7,123,-4,6,2
184161,-0.13,0.03,0.99,2.08,8.24,-3.36,-4.50,1.00,36.00,53.650917,9.698083,7.80,0.09,12,4.09-3,-12,14,-4,6,2
184262,-0.21,0.10,0.97,3.72,3.11,-16.78,-5.50,2.00,35.00,53.650917,9.698083,7.80,0.02,12,4.07-6,-13,-85,-4,6,2
184362,-0.10,0.05,1.07,-6.71,-14.22,19.23,-5.50,-1.00,31.00,53.650917,9.698083,7.80,0.02,12,3.69-1,-2,50,-4,6,2
184469,-0.12,-0.04,0.95,-2.32,1.95,1.53,-5.50,3.00,32.00,53.650917,9.698083,7.80,0.11,12,4.011,-6,-64,-4,6,2
184569,-0.11,-0.09,1.01,3.23,1.10,-18.01,-5.50,1.00,27.00,53.650917,9.698083,7.80,0.11,12,4.011,-7,-157,-4,6,2
184669,-0.21,0.05,0.96,-0.37,1.40,-0.61,-4.50,3.00,32.00,53.650917,9.698083,7.80,0.11,12,4.060,-11,-181,-4,6,2
184769,-0.16,0.05,0.89,5.07,14.83,-6.16,-4.50,1.00,32.00,53.650917,9.698083,7.80,0.11,12,3.98-5,-18,-190,-4,6,2
184869,-0.06,-0.00,0.98,0.00,-6.29,9.52,-5.50,0.00,34.00,53.650917,9.698083,7.80,0.11,12,3.99-1,-3,-183,-4,6,2
184969,0.09,0.05,0.82,42.97,-26.25,-20.26,-5.50,-1.00,28.00,53.650917,9.698083,7.80,0.11,12,4.07-23,18,-120,-4,6,2
185069,-0.06,-0.27,0.99,-11.05,19.17,-62.93,-11.50,4.00,34.00,53.650917,9.698083,7.80,0.06,12,4.1517,-9,60,-4,6,2
185169,-0.14,-0.03,1.03,2.08,9.40,2.99,-11.50,5.00,27.00,53.650917,9.698083,7.80,0.30,12,3.9012,-13,199,-4,6,2
185269,-0.15,-0.06,0.95,-0.12,-5.80,0.61,-10.50,4.00,30.00,53.650917,9.698083,7.80,0.30,12,4.088,-5,226,-4,6,2
185369,-0.15,-0.08,1.04,1.34,-3.54,-2.75,-10.50,4.00,27.00,53.650917,9.698083,7.90,0.30,12,4.035,-5,-54,-4,6,2
185469,-0.19,-0.04,0.92,-0.12,-0.79,-20.57,-11.50,5.00,27.00,53.650917,9.698083,7.90,0.30,12,3.873,-10,-182,-4,6,2
185634,-0.14,-0.02,1.00,2.75,7.63,-15.87,-11.50,4.00,33.00,53.650917,9.698083,7.90,0.30,12,3.850,-13,-202,-4,6,2
185734,-0.17,-0.04,0.96,-0.43,-1.04,0.98,-12.50,5.00,27.00,53.650917,9.698083,7.90,0.30,12,3.832,-8,-179,-4,6,2
185834,-0.17,-0.03,0.96,0.73,3.97,-1.22,-13.50,3.00,31.00,53.650917,9.698082,7.90,0.26,12,3.851,-11,-174,-4,6,2
185934,-0.09,-0.13,1.02,0.55,10.13,-21.06,-12.50,4.00,29.00,53.650917,9.698082,7.90,0.17,12,4.056,-9,-184,-4,6,2
186034,-0.13,0.02,0.97,1.34,8.85,-40.83,-13.50,3.00,29.00,53.650917,9.698082,7.90,0.17,12,4.020,-8,-185,-4,6,2
186134,-0.15,-0.10,1.01,3.36,7.02,-0.55,-12.50,4.00,31.00,53.650917,9.698082,7.90,0.17,12,3.903,-7,-159,-4,6,2
186234,-0.12,-0.01,1.04,3.60,9.58,-0.98,-14.50,2.00,28.00,53.650917,9.698082,7.90,0.17,12,3.990,-7,-165,-4,6,2
186334,-0.19,-0.06,0.87,-0.37,-3.17,0.73,-12.50,4.00,28.00,53.650917,9.698082,7.90,0.17,12,3.994,-6,-170,-4,6,2
186435,0.01,-0.06,0.96,2.62,-5.37,-25.76,-13.50,1.00,25.00,53.650917,9.698082,7.90,0.19,12,4.093,2,117,-4,6,2
186535,-0.13,-0.01,0.99,0.12,-1.28,-0.12,-12.50,2.00,31.00,53.650917,9.698082,7.90,0.19,12,3.751,-6,-100,-4,6,2
186635,-0.14,-0.02,0.99,-1.28,1.77,0.24,-11.50,4.00,27.00,53.650917,9.698082,7.90,0.13,12,3.771,-9,-172,-4,6,2
186735,-0.11,-0.02,0.98,1.28,-0.24,-0.49,-11.50,4.00,28.00,53.650917,9.698082,7.90,0.17,12,4.090,-6,-176,-4,6,2
186835,-0.20,-0.03,0.97,0.98,1.04,-17.03,-13.50,5.00,32.00,53.650917,9.698082,7.90,0.17,12,4.081,-11,-177,-4,6,2
186935,-0.14,-0.13,1.00,2.32,-3.66,1.40,-13.50,3.00,32.00,53.650917,9.698082,7.90,0.06,12,4.086,-6,145,-4,6,2
187035,-0.15,-0.01,0.89,-3.54,5.13,1.04,-14.50,5.00,33.00,53.650917,9.698082,7.90,0.06,12,4.073,-11,-110,-4,6,2
187135,-0.13,-0.01,0.98,-2.81,4.27,-0.37,-12.50,3.00,25.00,53.650917,9.698082,7.90,0.06,12,3.971,-8,-180,-4,6,2
187235,-0.08,-0.03,1.05,2.87,-2.38,-0.31,-10.50,4.00,32.00,53.650917,9.698082,7.90,0.06,12,4.000,-2,-169,-4,6,2
187335,-0.12,-0.01,1.03,2.01,-2.87,-1.28,-13.50,3.00,28.00,53.650917,9.698082,7.90,0.09,12,4.080,-5,-170,-4,6,2
187435,-0.22,0.03,0.86,12.39,1.83,-5.43,-12.50,5.00,31.00,53.650917,9.698082,7.90,0.09,12,4.00-5,-15,-162,-4,6,2
187535,-0.08,-0.02,0.95,-1.83,1.34,0.06,-11.50,3.00,31.00,53.650917,9.698082,8.00,0.13,12,4.074,-6,-174,-4,6,2
187635,-0.11,0.07,0.93,4.33,0.55,-32.10,-12.50,4.00,31.00,53.650921,9.698082,8.00,0.09,12,4.01-4,-6,-170,-4,6,2
187735,-0.10,0.02,0.96,0.12,1.59,1.10,-14.50,6.00,28.00,53.650921,9.698082,8.00,0.04,12,4.070,-6,-151,-4,6,2
187835,-0.09,-0.01,1.03,-0.79,-8.00,3.17,-11.50,2.00,27.00,53.650921,9.698082,8.00,0.13,12,4.081,-1,-168,-4,6,2
187935,-0.12,-0.01,1.07,0.06,-3.23,-3.60,-12.50,4.00,29.00,53.650921,9.698082,8.00,0.09,12,4.100,-6,-169,-4,6,2
188035,-0.15,0.01,0.91,2.08,-14.40,2.50,-11.50,6.00,29.00,53.650921,9.698082,8.00,0.09,12,4.08-1,-6,-154,-4,6,2
188135,-0.20,-0.01,0.89,3.17,10.31,1.83,-12.50,3.00,29.00,53.650921,9.698082,8.00,0.09,12,4.070,-19,-170,-4,6,2
188235,-0.09,-0.02,0.97,-1.40,0.98,1.16,-12.50,5.00,27.00,53.650921,9.698082,8.00,0.07,12,4.002,-4,-166,-4,6,2
188335,-0.16,-0.02,1.06,0.24,2.08,0.37,-12.50,4.00,30.00,53.650921,9.698082,8.00,0.11,12,4.031,-7,-168,-4,6,2
188435,-0.12,-0.01,1.00,0.06,0.61,-0.06,-12.50,3.00,31.00,53.650921,9.698082,8.00,0.30,12,4.070,-6,-170,-4,6,2
188535,-0.14,-0.01,0.94,-1.59,0.67,0.79,-14.50,4.00,28.00,53.650921,9.698082,8.10,0.22,12,4.021,-8,-169,-4,6,2
188635,-0.14,-0.01,0.97,-3.36,3.17,1.53,-13.50,1.00,30.00,53.650921,9.698082,8.10,0.07,12,4.071,-9,-177,-4,6,2
188735,-0.11,-0.03,1.00,0.73,-0.31,0.18,-11.50,1.00,33.00,53.650921,9.698082,8.10,0.13,12,4.070,-5,-178,-4,6,2
188852,-0.16,-0.01,1.01,-2.75,4.46,0.79,-13.50,3.00,33.00,53.650921,9.698082,8.10,0.06,12,4.041,-9,-173,-4,6,2
188952,-0.11,-0.02,1.00,-2.44,1.28,0.67,-12.50,5.00,31.00,53.650921,9.698082,8.10,0.06,12,4.091,-5,-164,-4,6,2
189052,-0.15,-0.00,0.98,0.24,1.95,0.49,-13.50,2.00,26.00,53.650921,9.698082,8.10,0.07,12,4.070,-8,-172,-4,6,2
189152,-0.13,-0.01,0.97,0.24,0.12,-0.18,-12.50,1.00,25.00,53.650921,9.698082,8.10,0.20,12,4.070,-7,-177,-4,6,2
189252,-0.11,-0.02,0.99,-0.49,-1.10,-0.18,-12.50,3.00,31.00,53.650921,9.698082,8.10,0.09,12,4.091,-6,-172,-4,6,2
189352,-0.15,-0.01,0.98,-0.06,-0.18,0.12,-12.50,2.00,29.00,53.650921,9.698082,8.10,0.07,12,4.090,-8,-173,-4,6,2
189452,-0.12,-0.01,0.99,0.73,1.22,-0.06,-13.50,5.00,30.00,53.650921,9.698082,8.10,0.00,12,4.090,-7,-165,-4,6,2
189552,-0.12,-0.03,0.97,-0.61,-0.18,0.31,-11.50,0.00,27.00,53.650921,9.698082,8.10,0.17,12,4.102,-6,165,-4,6,2
189660,-0.14,0.00,0.97,-2.50,2.81,1.10,-14.50,4.00,28.00,53.650921,9.698082,8.10,0.07,12,4.190,-8,-147,-4,6,2
189760,-0.13,-0.02,0.98,-1.53,0.49,0.18,-13.50,2.00,26.00,53.650921,9.698082,8.10,0.07,12,4.100,-7,-182,-4,6,2
189860,-0.11,-0.02,0.99,1.34,-1.71,-0.18,-14.50,4.00,28.00,53.650921,9.698082,8.10,0.07,12,4.100,-5,-169,-4,6,2
189960,-0.15,0.00,0.98,-0.12,0.79,0.24,-13.50,4.00,32.00,53.650921,9.698082,8.10,0.17,12,3.980,-8,-167,-4,6,2
190060,-0.13,0.01,1.00,2.26,-1.16,-0.79,-13.50,1.00,27.00,53.650921,9.698082,8.10,0.09,12,4.000,-7,-175,-4,6,2
190160,-0.11,-0.03,1.02,2.56,-3.36,-1.53,-12.50,3.00,22.00,53.650921,9.698082,8.10,0.07,12,3.961,-5,-171,-4,6,2
190260,-0.13,-0.01,1.00,-2.56,1.46,0.67,-13.50,3.00,24.00,53.650921,9.698082,8.10,0.07,12,4.061,-8,-171,-4,6,2
190360,-0.12,-0.03,1.03,2.14,0.55,-0.49,-14.50,3.00,27.00,53.650921,9.698082,8.10,0.07,12,3.971,-6,-171,-4,6,2
190460,-0.14,-0.00,0.96,0.55,0.67,0.37,-12.50,2.00,29.00,53.650921,9.698082,8.20,0.07,12,4.090,-8,-173,-4,6,2
190560,-0.15,-0.04,0.99,-0.49,-0.79,5.25,-12.50,3.00,28.00,53.650921,9.698082,8.20,0.07,12,4.062,-8,-172,-4,6,2
190660,-0.12,-0.02,0.96,-0.61,-0.12,-0.37,-11.50,3.00,32.00,53.650921,9.698082,8.20,0.07,12,4.141,-7,-172,-4,6,2
190760,-0.12,-0.01,1.00,-0.31,1.83,-0.37,-12.50,3.00,33.00,53.650921,9.698082,8.20,0.17,12,4.070,-7,-171,-4,6,2
190861,-0.14,-0.01,0.98,-1.28,0.37,0.49,-13.50,1.00,23.00,53.650921,9.698082,8.20,0.17,12,4.000,-8,-177,-4,6,2
190961,-0.11,-0.03,1.02,0.61,-0.92,-0.49,-13.50,0.00,26.00,53.650921,9.698082,8.20,0.13,12,4.031,-5,170,-4,6,2
191062,-0.11,-0.04,1.01,0.31,0.00,0.37,-14.50,1.00,25.00,53.650921,9.698082,8.20,0.13,12,4.042,-6,-166,-4,6,2
191163,-0.17,0.02,0.94,-1.77,0.24,0.18,-10.50,2.00,25.00,53.650921,9.698082,8.20,0.13,12,4.080,-9,-176,-4,6,2
191263,-0.11,-0.03,0.98,0.00,-0.18,0.18,-14.50,3.00,31.00,53.650921,9.698082,8.20,0.20,12,3.941,-6,-172,-4,6,2
191363,-0.14,-0.01,0.99,0.73,1.59,-0.55,-13.50,5.00,30.00,53.650921,9.698082,8.20,0.20,12,3.890,-8,-165,-4,6,2
191463,-0.13,-0.02,1.02,-2.44,0.43,1.46,-13.50,3.00,30.00,53.650921,9.698082,8.20,0.20,12,4.031,-6,-171,-4,6,2
191563,-0.11,-0.03,1.00,0.92,-1.22,-0.24,-12.50,3.00,31.00,53.650921,9.698082,8.20,0.20,12,4.061,-6,-171,-4,6,2
191665,-0.14,-0.06,1.02,3.85,-1.34,50.54,-14.50,1.00,33.00,53.650921,9.698083,8.20,0.20,12,3.933,-7,179,-4,6,2
191765,-0.15,-0.11,0.97,-0.92,-0.18,33.81,-11.50,2.00,34.00,53.650921,9.698082,8.20,0.20,12,4.016,-8,177,-4,6,2
191865,-0.08,-0.05,1.00,-3.48,-13.31,85.08,-12.50,1.00,28.00,53.650921,9.698083,8.20,0.20,12,4.063,-2,184,-4,6,2
191966,-0.14,-0.04,0.89,-10.56,14.71,52.67,-9.50,0.00,27.00,53.650921,9.698083,8.20,0.37,12,3.983,-11,171,-4,6,2
192066,-0.07,0.03,0.90,-73.06,32.53,9.34,-8.50,-1.00,29.00,53.650921,9.698083,8.20,0.37,12,4.005,-6,157,-4,6,2
192176,-0.14,0.02,0.95,-16.91,4.09,4.94,-5.50,-4.00,32.00,53.650921,9.698083,8.20,0.33,12,4.08-7,-4,178,-4,6,2
192276,-0.08,-0.00,1.01,-5.07,-2.32,18.19,-5.50,-4.00,28.00,53.650921,9.698083,8.20,0.33,12,4.17-1,-3,158,-4,6,2
192376,-0.09,0.09,0.99,-2.32,2.50,12.15,-4.50,-4.00,30.00,53.650921,9.698083,8.20,0.33,12,4.06-5,-5,169,-4,6,2
192476,-0.01,-0.05,1.03,-4.70,1.65,6.23,-3.50,-5.00,28.00,53.650921,9.698083,8.20,0.33,12,4.063,0,120,-4,6,2
192576,-0.04,0.00,1.03,8.18,-4.46,-0.18,-3.50,-5.00,27.00,53.650921,9.698083,8.20,0.33,12,4.01-1,-1,133,-4,6,2
192676,-0.12,-0.03,0.98,-15.44,15.01,-7.02,-4.50,-5.00,30.00,53.650921,9.698083,8.20,0.33,12,4.074,-9,141,-4,6,2
192776,0.10,0.37,0.77,70.68,-56.27,4.88,-2.50,-7.00,27.00,53.650921,9.698083,8.20,0.33,12,4.04-34,13,-62,-4,6,2
192876,-0.08,0.02,1.00,-5.68,4.46,-25.76,-5.50,-5.00,28.00,53.650921,9.698083,8.20,0.33,12,4.015,-10,135,-4,6,2
192976,-0.06,0.05,0.99,0.61,1.16,-1.71,-5.50,-5.00,28.00,53.650921,9.698083,8.20,0.43,12,4.05-2,-3,157,-4,6,2
193076,-0.01,0.08,0.94,12.88,-10.56,13.73,-5.50,-2.00,31.00,53.650921,9.698083,8.20,0.43,12,3.96-5,0,-161,-4,6,2
193176,-0.09,-0.01,1.01,9.89,-5.37,14.10,-3.50,-5.00,32.00,53.650921,9.698083,8.20,0.43,12,4.090,-5,133,-4,6,2
193276,-0.08,-0.01,0.98,0.98,0.06,-3.36,-4.50,-4.00,33.00,53.650921,9.698083,8.20,0.43,12,4.061,-5,147,-4,6,2
193376,-0.05,0.02,1.01,5.74,1.40,4.52,-5.50,-4.00,33.00,53.650921,9.698083,8.20,0.43,12,4.07-1,-3,156,-4,6,2
193476,-0.01,0.00,1.00,-24.05,19.35,-7.20,-2.50,-2.00,27.00,53.650921,9.698083,8.20,0.43,12,4.092,-2,137,-4,6,2
193590,-0.04,0.05,0.99,-1.16,0.18,0.43,-5.50,-7.00,30.00,53.650921,9.698083,8.20,0.43,12,4.09-4,0,143,-4,6,2
193693,-0.06,0.06,0.92,7.81,-7.93,-1.83,-4.50,-5.00,32.00,53.650921,9.698083,8.20,0.43,12,4.09-4,-3,158,-4,6,2
193795,-0.06,-0.00,1.02,22.28,-11.11,9.03,-4.50,-4.00,27.00,53.650921,9.698083,8.20,0.43,12,4.07-1,-3,151,-3,6,2
193895,-0.06,-0.00,0.94,-7.14,10.99,5.55,-3.50,-5.00,31.00,53.650921,9.698083,8.20,0.43,12,4.082,-5,134,-4,6,2
193995,-0.06,0.06,0.97,3.72,-4.58,-2.26,-3.50,-4.00,29.00,53.650921,9.698083,8.20,0.43,12,4.15-4,-2,157,-4,6,2
194095,-0.05,0.01,0.98,0.79,0.12,-0.24,-4.50,-5.00,30.00,53.650921,9.698083,8.20,0.43,12,4.080,-2,141,-4,6,2
194195,-0.05,0.00,1.03,2.87,-1.22,1.34,-5.50,-6.00,30.00,53.650921,9.698083,8.20,0.43,12,4.070,-2,139,-4,6,2
194295,-0.05,-0.03,1.06,-17.70,7.63,1.65,-4.50,-5.00,30.00,53.650921,9.698083,8.20,0.43,12,4.093,-3,132,-4,6,2
194410,-0.08,-0.01,1.04,-15.14,5.49,-2.01,-4.50,-6.00,32.00,53.650921,9.698083,8.20,0.43,12,4.040,-4,136,-4,6,2
194510,0.11,0.12,0.94,-57.37,36.25,-0.79,-3.50,-5.00,35.00,53.650921,9.698083,8.20,0.43,12,4.07-3,4,108,-4,6,2
194610,-0.01,0.02,0.98,47.91,-23.80,5.43,-1.50,-5.00,30.00,53.650921,9.698083,8.20,0.43,12,4.07-9,3,13,-4,6,2
194710,-0.06,0.03,1.00,-7.26,1.53,3.60,-4.50,-3.00,28.00,53.650921,9.698083,8.20,0.43,12,4.052,-4,147,-4,6,2
194810,0.01,-0.02,0.99,21.61,-11.41,3.42,-2.50,-8.00,25.00,53.650921,9.698083,8.20,0.43,12,4.070,1,104,-4,6,2
194912,0.02,0.00,1.08,-29.54,13.73,0.43,-5.50,-6.00,26.00,53.650921,9.698083,8.20,0.43,12,4.033,0,127,-4,6,2
195012,-0.05,0.07,0.99,7.69,-9.40,7.51,-0.50,-5.00,30.00,53.650921,9.698083,8.20,0.43,12,4.08-6,-1,126,-4,6,2
195112,-0.05,0.05,0.98,5.43,1.71,3.36,0.50,-5.00,29.00,53.650921,9.698083,8.20,0.43,12,4.07-2,-3,111,-4,6,2
195212,0.02,-0.01,1.05,24.78,-5.86,0.31,-0.50,-5.00,33.00,53.650921,9.698083,8.20,0.43,12,4.070,1,84,-4,6,2
195312,0.04,0.05,0.95,28.20,-17.70,7.32,-3.50,-5.00,31.00,53.650921,9.698083,8.20,0.43,12,4.08-3,3,117,-3,6,2
195412,-0.09,0.03,0.99,-3.78,3.11,-5.00,-5.50,-4.00,30.00,53.650921,9.698083,8.20,0.43,12,4.130,-6,153,-4,6,2
195520,-0.09,0.02,0.99,-1.04,4.21,7.26,-4.50,-4.00,33.00,53.650921,9.698083,8.20,0.43,12,4.07-1,-5,156,-4,6,2
195621,-0.02,-0.05,1.01,-1.04,11.23,2.50,-3.50,-4.00,30.00,53.650921,9.698083,8.20,0.43,12,4.082,-1,129,-4,6,2
195725,-0.01,-0.01,0.96,-11.54,1.46,-2.26,-2.50,-6.00,30.00,53.650921,9.698083,8.20,0.43,12,4.131,0,109,-4,6,2
195826,-0.06,0.02,1.00,-10.07,4.03,1.16,-1.50,-8.00,30.00,53.650921,9.698083,8.20,0.43,12,4.08-1,-3,113,-4,6,2
195926,-0.08,0.03,0.98,16.54,-2.14,3.97,-3.50,-5.00,28.00,53.650925,9.698084,8.20,0.02,12,4.06-3,-4,149,-4,6,2
196026,0.00,-0.04,1.00,4.52,1.65,-2.32,-4.50,-7.00,30.00,53.650925,9.698084,8.20,0.02,12,4.073,0,117,-4,6,2
196126,0.02,0.00,0.98,-6.96,6.84,0.24,-0.50,-8.00,30.00,53.650925,9.698084,8.20,0.02,12,4.060,0,89,-4,6,2
196226,0.02,0.06,0.96,-21.97,5.68,0.18,-2.50,-7.00,34.00,53.650925,9.698084,8.20,0.02,12,4.02-2,1,108,-3,6,2
196326,-0.04,0.06,0.96,-0.37,2.99,-0.73,-2.50,-4.00,31.00,53.650925,9.698084,8.20,0.02,12,4.09-4,-2,157,-4,6,2
196426,0.01,0.02,1.00,4.82,-0.92,0.98,-1.50,-5.00,35.00,53.650925,9.698084,8.20,0.24,12,4.06-1,0,103,-4,6,2
196526,0.03,0.03,1.00,-1.71,-5.43,-1.34,-4.50,-6.00,29.00,53.650925,9.698084,8.20,0.24,12,4.07-1,1,124,-4,6,2
196626,-0.01,0.01,1.04,23.80,-9.70,-0.55,-0.50,-6.00,32.00,53.650925,9.698084,8.20,0.24,12,4.11-1,0,99,-4,6,2
196726,-0.03,-0.02,1.02,0.37,-3.78,-2.14,-2.50,-3.00,35.00,53.650925,9.698084,8.20,0.24,12,4.062,-1,128,-4,6,2
196826,0.01,0.01,1.00,-18.86,7.63,-2.99,-2.50,-6.00,33.00,53.650925,9.698084,8.20,0.24,12,3.990,0,111,-4,6,2
196926,0.01,0.05,1.03,3.91,-2.38,3.23,-1.50,-6.00,33.00,53.650925,9.698084,8.20,0.24,12,4.07-4,1,101,-3,6,2
197026,-0.02,0.08,1.00,2.20,0.12,1.77,0.50,-7.00,31.00,53.650925,9.698084,8.20,0.24,12,4.07-4,-1,90,-4,6,2
197126,-0.03,0.04,1.03,15.93,-2.69,0.67,-0.50,-6.00,32.00,53.650925,9.698084,8.20,0.24,12,4.23-3,-1,107,-4,6,2
197226,0.00,0.02,1.00,3.72,-3.05,-0.67,-0.50,-6.00,29.00,53.650925,9.698084,8.20,0.24,12,4.050,0,93,-4,6,2
197326,0.00,0.04,0.99,-0.37,-2.20,-3.23,-2.50,-3.00,27.00,53.650925,9.698084,8.20,0.24,12,4.07-2,0,141,-4,6,2
197426,-0.03,0.01,1.00,11.84,-5.68,0.24,-1.50,-4.00,31.00,53.650925,9.698084,8.20,0.24,12,4.06-1,-1,123,-4,6,2
197526,-0.02,-0.04,1.00,-1.04,1.59,-1.22,-4.50,-7.00,33.00,53.650925,9.698084,8.20,0.24,12,4.132,-1,122,-4,6,2
197626,-0.02,-0.01,0.99,0.06,1.04,0.00,-4.50,-4.00,34.00,53.650925,9.698084,8.20,0.24,12,4.030,0,139,-4,6,2
197808,-0.05,-0.00,0.99,0.55,-0.06,-0.67,-4.50,-5.00,36.00,53.650925,9.698084,8.20,0.24,12,4.070,-2,140,-4,6,2
197908,-0.03,-0.01,0.99,-1.04,0.67,-0.06,-3.50,-4.00,31.00,53.650925,9.698084,8.20,0.24,12,4.080,-2,136,-4,6,2
198008,-0.02,-0.02,0.99,0.00,-1.10,-0.73,-4.50,-4.00,30.00,53.650925,9.698084,8.20,0.24,12,4.120,0,137,-4,6,2
198108,-0.02,0.00,0.99,-0.18,-1.04,-0.37,-4.50,-4.00,28.00,53.650925,9.698084,8.20,0.24,12,4.140,-1,142,-4,6,2
198208,-0.03,-0.01,1.00,-0.43,0.67,0.92,-5.50,-5.00,31.00,53.650925,9.698084,8.20,0.24,12,4.080,-1,140,-4,6,2
198308,-0.01,-0.01,1.02,-5.31,4.03,0.37,-5.50,-5.00,25.00,53.650925,9.698084,8.20,0.24,12,3.961,0,137,-4,6,2
198408,0.00,-0.00,1.00,-9.95,5.49,1.34,-2.50,-6.00,34.00,53.650925,9.698084,8.20,0.24,12,4.210,0,110,-4,6,2
198508,-0.01,0.04,0.98,2.87,-0.61,0.61,-3.50,-9.00,28.00,53.650925,9.698084,8.20,0.24,12,4.00-2,0,116,-4,6,2
198609,-0.04,-0.03,1.04,20.87,-7.63,-0.55,-3.50,-5.00,35.00,53.650925,9.698084,8.20,0.24,12,3.920,-2,130,-4,6,2
198709,-0.01,-0.02,0.99,-1.65,1.22,-0.79,-3.50,-6.00,33.00,53.650925,9.698084,8.20,0.24,12,3.871,-1,120,-4,6,2
198809,-0.03,-0.01,0.99,2.01,-2.26,-1.16,-4.50,-5.00,31.00,53.650925,9.698084,8.20,0.24,12,3.890,-1,135,-4,6,2
198913,-0.03,-0.00,0.96,-0.12,2.32,-0.85,-5.50,-5.00,28.00,53.650925,9.698084,8.20,0.24,12,4.010,-1,141,-4,6,2
199013,0.00,0.02,0.99,-3.17,0.73,-3.85,-4.50,-6.00,27.00,53.650925,9.698084,8.20,0.24,12,4.020,0,127,-4,6,2
199113,-0.01,-0.00,0.99,-3.42,-1.53,0.06,-4.50,-7.00,30.00,53.650925,9.698084,8.20,0.24,12,4.070,0,124,-4,6,2
199213,-0.04,-0.01,1.00,1.53,-2.26,-0.49,-4.50,-6.00,28.00,53.650925,9.698084,8.20,0.24,12,3.900,-2,131,-4,6,2
199313,-0.01,-0.00,0.99,0.18,1.65,2.01,-3.50,-6.00,31.00,53.650925,9.698084,8.20,0.24,12,4.040,-1,123,-4,6,2
199413,-0.02,-0.02,1.00,0.00,4.52,5.19,-3.50,-5.00,30.00,53.650925,9.698084,8.20,0.24,12,4.191,-1,126,-4,6,2
199513,0.01,-0.00,0.99,-1.53,4.33,3.97,-3.50,-5.00,29.00,53.650925,9.698084,8.20,0.24,12,3.900,0,122,-4,6,2
199613,-0.01,-0.01,1.01,2.56,-0.92,0.79,-4.50,-6.00,30.00,53.650925,9.698084,8.20,0.24,12,3.910,0,127,-4,6,2
199713,0.00,-0.00,0.99,-5.98,4.64,3.72,-4.50,-8.00,31.00,53.650925,9.698084,8.20,0.24,12,3.910,0,119,-4,6,2
199829,-0.00,0.01,0.99,7.02,-5.31,0.24,-3.50,-4.00,32.00,53.650925,9.698084,8.20,0.24,12,4.06-1,0,135,-4,6,2
199941,0.07,0.09,1.02,-7.81,5.07,17.03,-4.50,-7.00,30.00,53.650925,9.698084,8.20,0.24,12,3.90-4,3,118,-4,6,2
200041,0.01,-0.01,1.00,-0.18,-0.37,0.06,-3.50,-7.00,34.00,53.650925,9.698084,8.20,0.24,12,3.920,0,112,-4,6,2
200141,0.00,0.03,1.00,0.24,-0.73,2.56,-1.50,-5.00,27.00,53.650925,9.698084,8.20,0.24,12,4.00-1,0,108,-4,6,2
200241,-0.01,0.00,1.00,0.00,0.12,-0.12,-1.50,-8.00,30.00,53.650925,9.698084,8.20,0.24,12,4.050,0,102,-4,6,2
200341,0.00,0.01,0.99,0.73,1.77,0.43,-1.50,-7.00,26.00,53.650925,9.698086,8.20,0.04,12,4.020,0,102,-4,6,2
200441,0.01,-0.00,1.01,-0.31,-0.67,-0.06,-5.50,-7.00,24.00,53.650925,9.698086,8.50,0.07,12,3.910,0,126,-4,6,2
200541,0.01,0.01,1.01,-0.67,-0.18,-0.06,-3.50,-7.00,33.00,53.650925,9.698086,8.50,0.07,12,4.040,0,116,-4,6,2
200641,-0.00,0.00,1.00,0.12,0.06,0.06,-3.50,-5.00,32.00,53.650925,9.698086,8.50,0.02,12,4.040,0,125,-4,6,2
200741,0.00,0.00,1.01,-0.18,0.49,0.24,-3.50,-5.00,32.00,53.650925,9.698087,8.50,0.19,12,4.070,0,125,-4,6,2
200841,-0.02,-0.00,1.02,-0.43,0.18,0.92,-2.50,-4.00,35.00,53.650925,9.698087,8.50,0.15,12,4.080,0,126,-4,6,2
200941,0.01,0.01,0.98,0.24,-1.10,0.18,-1.50,-7.00,33.00,53.650925,9.698087,8.50,0.07,12,4.080,0,99,-4,6,2
201041,0.00,-0.00,1.00,0.24,-0.67,0.12,-0.50,-7.00,32.00,53.650925,9.698087,8.50,0.07,12,4.060,0,93,-4,6,2
201141,-0.00,0.01,1.00,0.00,0.31,0.06,-1.50,-7.00,32.00,53.650925,9.698087,8.50,0.07,12,4.020,0,103,-4,6,2
201245,0.01,0.00,0.99,-0.06,0.67,-0.06,-2.50,-4.00,36.00,53.650925,9.698087,8.50,0.07,12,4.060,0,119,-4,6,2
201345,0.01,0.01,1.00,0.49,-0.98,0.18,-2.50,-5.00,30.00,53.650925,9.698087,8.50,0.06,12,4.120,0,114,-4,6,2
201445,-0.01,0.00,1.01,-0.12,-0.43,0.06,0.50,-6.00,29.00,53.650925,9.698087,8.50,0.19,12,4.080,0,87,-4,6,2
201549,-0.01,0.01,1.00,0.24,0.55,0.06,-2.50,-2.00,30.00,53.650925,9.698087,8.50,0.07,12,3.920,0,148,-4,6,2
201649,0.12,0.05,1.04,-1.53,1.83,2.93,-0.50,-4.00,32.00,53.650925,9.698087,8.50,0.07,12,4.06-2,6,39,-4,6,2
201749,0.02,0.01,0.99,0.49,-0.37,0.12,-1.50,-6.00,30.00,53.650925,9.698087,8.50,0.06,12,4.080,1,99,-4,6,2
201855,-0.00,0.00,1.01,-0.43,0.43,-0.06,-0.50,-7.00,32.00,53.650925,9.698087,8.50,0.09,12,4.060,0,94,-4,6,2
201955,0.02,0.03,0.99,-0.67,0.61,0.12,-3.50,-5.00,33.00,53.650925,9.698087,8.50,0.13,12,4.09-1,1,124,-4,6,2
202055,0.02,0.04,0.98,0.06,-0.37,0.31,-1.50,-5.00,33.00,53.650925,9.698087,8.50,0.13,12,3.98-2,1,102,-4,6,2
202164,0.02,0.04,0.99,0.31,-0.06,8.91,-1.50,-6.00,32.00,53.650925,9.698087,8.50,0.13,12,4.05-2,1,100,-4,6,2
202265,-0.03,-0.03,1.10,-2.32,-2.32,2.08,-0.50,-7.00,32.00,53.650925,9.698087,8.50,0.13,12,4.071,-1,99,-4,6,2
202365,-0.02,-0.01,1.05,0.49,-1.22,-1.10,-1.50,-7.00,28.00,53.650925,9.698087,8.50,0.13,12,4.090,-1,105,-4,6,2
202465,0.01,0.01,1.00,0.85,-0.61,-0.92,-0.50,-7.00,31.00,53.650925,9.698087,8.50,0.13,12,4.060,0,90,-4,6,2
202565,0.02,-0.00,0.99,-0.06,1.10,0.31,-1.50,-7.00,28.00,53.650925,9.698087,8.50,0.13,12,4.070,1,97,-4,6,2
202665,-0.01,-0.00,0.95,0.18,1.10,-0.67,-1.50,-6.00,35.00,53.650925,9.698087,8.50,0.13,12,4.100,0,107,-4,6,2
202765,0.01,-0.00,0.99,-0.43,0.24,-0.43,-3.50,-8.00,34.00,53.650925,9.698087,8.50,0.13,12,4.080,0,111,-4,6,2
202865,-0.01,-0.01,1.11,1.59,-3.91,0.06,-1.50,-7.00,38.00,53.650925,9.698087,8.60,0.13,12,4.070,0,103,-4,6,2
202965,0.04,0.01,0.96,-1.16,2.44,0.18,-1.50,-7.00,31.00,53.650925,9.698087,8.50,0.17,12,4.070,2,92,-4,6,2
203065,-0.00,0.01,1.04,4.09,-5.37,0.06,-2.50,-8.00,34.00,53.650925,9.698087,8.50,0.17,12,4.040,0,107,-4,6,2
203165,0.03,0.01,0.95,1.71,-0.55,0.06,-1.50,-7.00,27.00,53.650925,9.698087,8.50,0.19,12,4.070,1,96,-4,6,2
203265,0.02,0.02,0.92,1.04,0.98,-0.12,0.50,-9.00,33.00,53.650925,9.698087,8.50,0.19,12,4.230,1,82,-4,6,2
203365,-0.09,-0.01,0.92,-8.12,0.06,-2.01,-3.50,-5.00,28.00,53.650925,9.698087,8.50,0.19,12,4.050,-5,139,-4,6,2
203465,-0.02,0.04,0.91,1.40,-1.77,3.97,-1.50,-8.00,35.00,53.650925,9.698087,8.50,0.19,12,4.16-2,-1,111,-4,6,2
203565,0.03,0.02,1.08,2.81,-1.77,-2.44,-1.50,-6.00,29.00,53.650925,9.698087,8.50,0.20,12,4.05-1,1,98,-4,6,2
203672,0.05,0.03,0.95,-5.25,4.33,-3.05,-1.50,-7.00,31.00,53.650925,9.698087,8.50,0.20,12,4.07-1,3,88,-5,6,2
203772,0.00,0.01,1.01,0.00,-1.22,0.37,-1.50,-10.00,30.00,53.650925,9.698087,8.50,0.20,12,4.050,0,98,-4,6,2
203878,-0.04,0.05,1.00,13.00,-7.93,7.20,-1.50,-7.00,29.00,53.650925,9.698087,8.50,0.20,12,4.13-3,-2,115,-4,6,2
203979,-0.00,0.02,1.02,-3.72,2.38,-0.98,-1.50,-7.00,24.00,53.650925,9.698087,8.50,0.35,12,4.000,0,104,-4,6,2
204079,-0.00,0.00,0.96,-0.49,1.28,-1.53,-2.50,-7.00,30.00,53.650925,9.698087,8.50,0.35,12,4.090,0,110,-4,6,2
204183,0.02,0.00,0.97,-0.79,3.85,-1.04,-0.50,-5.00,28.00,53.650925,9.698087,8.50,0.35,12,4.060,1,89,-4,6,2
204283,0.00,0.00,1.01,-0.24,-1.04,-0.31,-1.50,-6.00,25.00,53.650925,9.698087,8.50,0.35,12,4.100,0,103,-4,6,2
204400,0.00,-0.01,1.00,0.24,-1.28,-0.73,-2.50,-8.00,32.00,53.650925,9.698087,8.50,0.35,12,4.080,0,106,-4,6,2
204500,0.01,-0.00,1.01,0.06,-0.79,-4.46,-0.50,-7.00,31.00,53.650925,9.698087,8.50,0.35,12,4.070,0,92,-4,6,2
204600,-0.07,-0.15,0.92,0.06,1.28,-13.92,-1.50,-10.00,31.00,53.650925,9.698087,8.50,0.35,12,4.049,-4,104,-4,6,2
204703,0.05,0.09,1.00,-4.33,5.07,-21.61,-3.50,-7.00,31.00,53.650925,9.698087,8.50,0.35,12,4.07-4,3,112,-5,6,2
204803,-0.08,0.04,1.03,1.16,-1.71,10.80,-1.50,-6.00,29.00,53.650925,9.698087,8.50,0.35,12,4.07-2,-4,128,-4,6,2
204903,0.04,0.01,1.01,-4.88,2.75,-3.05,-3.50,-11.00,30.00,53.650925,9.698087,8.50,0.35,12,4.060,2,102,-4,6,2
205003,0.09,0.08,0.99,-5.43,3.42,24.96,-1.50,-11.00,29.00,53.650925,9.698087,8.50,0.35,12,4.08-4,4,83,-4,6,2
205103,0.00,0.02,0.98,-2.87,2.56,0.37,-2.50,-8.00,31.00,53.650925,9.698087,8.50,0.35,12,4.080,0,107,-4,6,2
205203,0.01,-0.01,1.00,-0.55,1.22,-0.37,-2.50,-11.00,28.00,53.650925,9.698087,8.50,0.35,12,3.970,0,100,-4,6,2
205303,-0.09,-0.12,1.02,4.82,-1.77,-23.01,-2.50,-7.00,27.00,53.650925,9.698087,8.50,0.35,12,3.906,-4,114,-4,6,2
205403,-0.06,-0.04,0.99,-2.01,0.98,3.42,-3.50,-5.00,29.00,53.650925,9.698087,8.50,0.35,12,4.032,-3,131,-4,6,2
205521,-0.03,-0.01,0.98,0.31,-2.32,4.33,-1.50,-7.00,31.00,53.650925,9.698087,8.50,0.35,12,4.120,-1,107,-4,6,2
205621,-0.00,0.01,1.00,-0.55,0.55,8.54,-1.50,-8.00,33.00,53.650925,9.698087,8.50,0.35,12,4.060,0,101,-4,6,2
205721,0.04,0.07,0.96,-1.34,3.54,15.44,-2.50,-8.00,25.00,53.650925,9.698087,8.50,0.35,12,4.06-4,2,103,-4,6,2
205821,0.05,-0.01,1.01,-0.92,1.34,-0.12,-2.50,-6.00,29.00,53.650925,9.698087,8.50,0.35,12,4.060,2,99,-4,6,2
205936,0.09,0.12,1.04,2.99,-5.68,11.35,-2.50,-9.00,33.00,53.650925,9.698087,8.50,0.35,12,4.07-6,4,87,-4,6,2
206036,-0.03,-0.04,1.01,9.83,-5.98,5.62,-1.50,-6.00,36.00,53.650925,9.698087,8.50,0.35,12,4.091,-1,110,-4,6,2
206140,-0.01,-0.01,1.00,0.24,0.79,0.06,-4.50,-17.00,39.00,53.650925,9.698087,8.50,0.35,12,4.060,0,106,-4,6,2
206240,0.02,-0.01,1.01,-0.55,0.55,0.00,-5.50,-16.00,41.00,53.650925,9.698087,8.50,0.35,12,4.090,0,106,-4,6,2
206340,0.01,-0.01,1.00,0.12,-0.12,0.12,-4.50,-17.00,42.00,53.650925,9.698087,8.50,0.35,12,4.050,0,102,-4,6,2
206440,-0.03,-0.01,0.99,0.73,-1.46,-0.31,-2.50,-17.00,44.00,53.650925,9.698087,8.50,0.13,12,3.980,-1,102,-4,6,2
206540,0.03,-0.01,0.99,0.85,-0.24,0.06,-3.50,-18.00,43.00,53.650925,9.698087,8.50,0.06,12,4.050,1,97,-4,6,2
206640,-0.03,-0.01,0.99,0.12,0.67,0.18,-2.50,-19.00,37.00,53.650925,9.698087,8.50,0.11,12,3.770,-1,100,-4,6,2
206740,0.03,-0.01,1.00,0.12,0.00,-0.18,-1.50,-20.00,39.00,53.650925,9.698087,8.50,0.11,12,4.070,1,90,-4,6,2
206843,0.01,-0.01,1.00,0.06,-1.22,0.67,-4.50,-20.00,39.00,53.650925,9.698087,8.50,0.11,12,4.030,0,101,-4,6,2
206943,-0.05,-0.01,0.99,0.06,0.49,-0.18,-1.50,-18.00,43.00,53.650925,9.698087,8.50,0.46,12,4.080,-2,101,-4,6,2
207043,0.01,-0.01,0.99,0.06,1.77,-0.24,-1.50,-19.00,43.00,53.650925,9.698087,8.50,0.46,12,4.070,0,93,-4,6,2
207143,0.01,-0.01,1.00,-0.06,0.31,0.18,-4.50,-18.00,40.00,53.650925,9.698087,8.50,0.46,12,4.080,0,102,-4,6,2
207243,0.00,-0.01,1.01,0.06,-1.10,-0.06,-4.50,-19.00,37.00,53.650925,9.698087,8.50,0.09,12,4.070,0,102,-4,6,2
207343,-0.00,-0.01,1.00,0.12,-0.43,0.37,-3.50,-21.00,40.00,53.650925,9.698087,8.50,0.22,12,4.070,0,99,-4,6,2
207444,-0.03,-0.01,1.01,-0.06,0.61,-0.12,-4.50,-21.00,44.00,53.650925,9.698087,8.50,0.15,12,4.100,-1,105,-4,6,2
207544,0.02,-0.01,1.01,0.06,0.43,-0.18,-4.50,-22.00,42.00,53.650925,9.698087,8.50,0.13,12,4.080,1,99,-4,6,2
207644,-0.00,-0.01,0.99,0.18,0.92,0.12,0.50,-19.00,40.00,53.650925,9.698087,8.50,0.17,12,4.080,0,88,-4,6,2
207744,0.02,-0.01,1.00,0.24,-0.49,0.00,-1.50,-19.00,40.00,53.650925,9.698087,8.50,0.28,12,4.010,1,91,-4,6,2
207844,-0.01,-0.02,1.00,0.00,-1.40,0.31,-1.50,-20.00,40.00,53.650925,9.698087,8.50,0.06,12,4.050,0,94,-4,6,2
207951,-0.04,-0.00,1.00,0.12,0.00,0.12,-3.50,-21.00,41.00,53.650925,9.698087,8.60,0.31,12,4.060,-2,103,-4,6,2
208051,0.03,-0.01,0.99,0.06,1.71,-0.37,-3.50,-20.00,41.00,53.650925,9.698087,8.60,0.31,12,4.060,1,96,-5,6,2
208151,0.02,-0.00,1.00,0.06,-0.79,0.12,-2.50,-20.00,40.00,53.650925,9.698087,8.60,0.31,12,4.060,1,94,-4,6,2
208251,-0.01,-0.01,1.00,-0.06,-1.40,0.31,-3.50,-20.00,42.00,53.650925,9.698087,8.60,0.28,12,4.080,0,101,-4,6,2
208351,-0.03,-0.01,1.00,0.18,1.16,-0.12,-3.50,-20.00,41.00,53.650925,9.698087,8.50,0.22,12,4.100,-1,103,-5,6,2
208451,0.03,-0.01,0.99,0.18,1.04,-0.24,-3.50,-20.00,40.00,53.650925,9.698087,8.50,0.19,12,4.130,1,96,-4,6,2
208551,0.02,-0.01,1.00,0.18,-1.59,0.43,-3.50,-20.00,38.00,53.650925,9.698087,8.50,0.11,12,4.100,1,97,-4,6,2
208651,-0.03,-0.01,1.00,0.06,-0.12,0.18,-2.50,-20.00,45.00,53.650925,9.698088,8.60,0.28,12,4.070,-1,101,-5,6,2
208751,-0.01,-0.01,1.00,0.06,1.46,-0.37,-1.50,-22.00,40.00,53.650925,9.698087,8.60,0.24,12,3.920,0,94,-5,6,2
208861,0.05,-0.01,1.00,-0.12,-0.24,0.12,-1.50,-20.00,40.00,53.650925,9.698087,8.60,0.41,12,3.980,2,88,-4,6,2
208961,-0.01,-0.01,1.00,0.06,-2.32,0.43,-3.50,-19.00,41.00,53.650925,9.698087,8.60,0.78,12,4.060,0,101,-4,6,2
209061,-0.04,-0.01,1.00,0.06,0.18,0.00,-3.50,-22.00,43.00,53.650925,9.698087,8.60,0.78,12,4.030,-2,103,-4,6,2
209161,-0.00,-0.01,1.01,0.24,2.38,-0.24,-5.50,-21.00,39.00,53.650925,9.698088,8.60,0.41,12,4.070,0,104,-4,6,2
209261,0.04,-0.01,1.00,0.00,0.55,-0.12,-4.50,-25.00,37.00,53.650925,9.698087,8.60,0.31,12,4.090,2,97,-4,6,2
209361,-0.00,-0.01,1.00,0.06,-2.01,0.43,-4.50,-23.00,35.00,53.650925,9.698087,8.60,0.31,12,4.090,0,101,-5,6,2
209461,-0.03,-0.01,0.99,-0.06,-0.37,0.24,-5.50,-25.00,42.00,53.650925,9.698088,8.60,0.31,12,4.050,-2,105,-4,6,2
209561,-0.01,-0.01,1.00,0.06,1.65,-0.37,-3.50,-25.00,38.00,53.650925,9.698088,8.60,0.31,12,4.000,0,98,-4,6,2
209661,0.04,-0.01,1.00,0.24,0.24,-0.06,-4.50,-21.00,36.00,53.650925,9.698088,8.60,0.31,12,4.060,2,98,-4,6,2
209761,-0.01,-0.01,1.00,0.06,-0.85,0.31,-1.50,-24.00,32.00,53.650925,9.698088,8.60,0.19,12,4.090,0,94,-4,6,2
209861,-0.02,-0.01,1.00,0.12,-0.18,0.06,-3.50,-25.00,40.00,53.650925,9.698088,8.60,0.33,12,3.880,0,99,-4,6,2
210003,0.01,-0.01,1.00,0.06,0.37,0.00,-1.50,-21.00,38.00,53.650925,9.698088,8.60,0.09,12,4.060,0,92,-4,6,2
210103,0.00,-0.01,1.00,0.06,0.06,0.06,-4.50,-23.00,39.00,53.650925,9.698088,8.60,0.09,12,4.070,0,100,-4,6,2
210203,-0.01,-0.01,1.00,0.06,-0.24,-0.12,-5.50,-22.00,40.00,53.650925,9.698088,8.60,0.09,12,4.050,0,104,-4,6,2
210303,-0.01,-0.01,1.00,0.06,-0.31,0.18,-2.50,-21.00,41.00,53.650925,9.698088,8.60,0.09,12,4.060,0,97,-5,6,2
210403,-0.01,-0.01,1.00,0.12,0.24,-0.18,-1.50,-20.00,32.00,53.650925,9.698088,8.60,0.09,12,4.050,0,95,-4,6,2
210503,0.02,-0.01,1.00,0.06,-0.12,0.06,-3.50,-20.00,41.00,53.650925,9.698088,8.60,0.09,12,4.070,1,97,-4,6,2
210603,-0.02,-0.01,1.00,0.12,-0.24,0.18,-3.50,-20.00,37.00,53.650925,9.698088,8.60,0.09,12,4.070,-1,101,-4,6,2
210703,-0.00,-0.01,1.00,0.06,0.49,-0.18,-3.50,-18.00,43.00,53.650925,9.698088,8.60,0.09,12,4.000,0,101,-5,6,2
210803,0.00,-0.01,1.00,0.06,0.00,0.12,-2.50,-21.00,35.00,53.650925,9.698088,8.60,0.09,12,4.040,0,96,-5,6,2
210906,0.00,-0.01,1.00,0.18,-0.85,0.00,-1.50,-20.00,40.00,53.650925,9.698088,8.60,0.09,12,4.040,0,93,-5,6,2
211006,-0.01,-0.01,1.00,0.06,-0.55,0.18,-4.50,-22.00,35.00,53.650925,9.698088,8.60,0.09,12,3.910,0,102,-4,6,2
211106,-0.03,-0.01,1.01,-0.12,2.26,-0.24,-3.50,-20.00,35.00,53.650925,9.698088,8.60,0.09,12,4.130,-1,102,-4,6,2
211206,0.04,-0.01,1.01,0.12,0.85,-0.31,-3.50,-22.00,39.00,53.650925,9.698088,8.60,0.09,12,4.070,2,94,-4,6,2
211306,0.03,-0.01,1.00,0.00,-3.11,0.49,-3.50,-20.00,36.00,53.650925,9.698088,8.60,0.09,12,3.980,2,96,-4,6,2
211406,-0.07,-0.00,1.01,0.06,-0.49,0.31,-5.50,-22.00,40.00,53.650925,9.698088,8.60,0.09,12,3.980,-3,110,-4,6,2
211506,-0.01,-0.01,0.99,0.24,2.62,-0.55,-3.50,-19.00,42.00,53.650925,9.698088,8.60,0.09,12,4.080,0,101,-5,6,2
211606,0.07,-0.01,1.00,0.12,0.55,-0.06,-4.50,-22.00,37.00,53.650925,9.698088,8.60,0.09,12,4.050,3,95,-4,6,2
211706,-0.00,-0.01,1.00,-0.06,-1.95,0.61,-2.50,-21.00,34.00,53.650925,9.698088,8.60,0.09,12,3.920,0,96,-4,6,2
211806,-0.04,-0.01,1.00,0.18,-0.85,0.00,-2.50,-21.00,39.00,53.650925,9.698088,8.60,0.09,12,4.000,-2,100,-4,6,2
211909,-0.01,-0.01,1.00,-0.12,1.10,-0.18,-4.50,-21.00,38.00,53.650925,9.698088,8.60,0.09,12,4.030,0,102,-4,6,2
212019,0.01,-0.01,0.99,0.18,0.49,-0.12,-4.50,-23.00,36.00,53.650925,9.698088,8.60,0.09,12,4.090,0,99,-4,6,2
212124,0.03,-0.01,1.01,0.12,-0.67,0.06,-5.50,-22.00,40.00,53.650925,9.698088,8.60,0.09,12,4.190,1,101,-4,6,2
212224,-0.03,-0.01,0.99,0.06,-0.12,0.18,-3.50,-20.00,41.00,53.650925,9.698088,8.60,0.09,12,4.060,-1,102,-4,6,2
212324,0.00,-0.01,0.99,0.18,0.18,-0.06,-2.50,-21.00,38.00,53.650925,9.698088,8.60,0.09,12,4.070,0,96,-4,6,2
212424,0.02,-0.01,1.00,0.06,-0.12,0.00,-5.50,-21.00,41.00,53.650925,9.698088,8.60,0.09,12,4.040,1,102,-4,6,2
212524,-0.00,-0.01,1.00,0.24,-0.67,0.00,-4.50,-20.00,37.00,53.650925,9.698088,8.60,0.09,12,4.050,0,102,-4,6,2
212624,-0.01,-0.01,1.00,0.00,0.06,-0.06,-3.50,-22.00,36.00,53.650925,9.698088,8.60,0.09,12,4.050,0,100,-4,6,2
212724,-0.01,-0.01,1.00,0.12,0.85,0.06,-2.50,-23.00,38.00,53.650925,9.698088,8.60,0.09,12,3.980,0,97,-4,6,2
212824,-0.01,-0.01,1.00,0.06,1.04,-0.24,-5.50,-20.00,39.00,53.650925,9.698088,8.60,0.09,12,4.070,0,105,-4,6,2
212924,0.05,-0.01,0.99,0.12,-0.55,0.06,-4.50,-21.00,38.00,53.650925,9.698088,8.60,0.09,12,4.010,3,96,-4,6,2
213024,-0.04,-0.01,1.01,0.18,-1.16,0.31,-3.50,-20.00,41.00,53.650925,9.698088,8.60,0.09,12,3.920,-2,103,-4,6,2
213124,-0.03,-0.01,0.99,0.12,0.18,-0.18,-4.50,-20.00,36.00,53.650925,9.698088,8.60,0.09,12,4.090,-1,104,-4,6,2
213224,0.02,-0.01,1.01,-0.12,0.00,0.18,-3.50,-21.00,39.00,53.650925,9.698088,8.60,0.09,12,4.060,1,97,-4,6,2
213324,-0.02,-0.01,1.00,0.12,-0.12,0.06,-5.50,-22.00,36.00,53.650925,9.698088,8.60,0.09,12,4.070,-1,105,-4,6,2
213424,-0.03,-0.01,1.00,0.12,0.00,-0.24,-3.50,-19.00,38.00,53.650925,9.698088,8.60,0.09,12,3.990,-1,103,-4,6,2
213524,0.01,-0.01,1.00,0.06,0.37,0.12,-4.50,-22.00,38.00,53.650925,9.698088,8.60,0.09,12,4.060,0,100,-4,6,2
213624,0.01,-0.01,1.00,0.00,0.00,-0.18,-5.50,-20.00,39.00,53.650925,9.698088,8.60,0.09,12,4.040,0,104,-4,6,2
213724,0.02,-0.01,1.00,0.00,-0.43,0.18,-4.50,-22.00,41.00,53.650925,9.698088,8.60,0.09,12,4.070,1,98,-4,6,2
213828,-0.03,-0.01,1.00,0.18,-0.55,0.12,-4.50,-19.00,40.00,53.650925,9.698088,8.60,0.09,12,4.100,-1,105,-4,6,2
213931,-0.02,-0.01,1.00,0.12,1.71,-0.18,-4.50,-17.00,38.00,53.650925,9.698088,8.60,0.09,12,4.060,-1,106,-4,6,2
214031,0.01,-0.01,1.01,-0.18,1.46,0.06,-5.50,-20.00,37.00,53.650925,9.698088,8.60,0.09,12,4.020,0,104,-4,6,2
214131,0.04,-0.01,1.00,0.12,-2.01,-0.06,-2.50,-19.00,41.00,53.650925,9.698088,8.60,0.09,12,3.980,2,92,-4,6,2
214231,-0.04,-0.01,0.99,0.06,-1.71,0.61,-3.50,-19.00,34.00,53.650925,9.698088,8.60,0.09,12,4.070,-2,104,-4,6,2
214477,0.02,-0.01,1.01,0.12,-0.24,0.49,-1.50,-19.00,41.00,53.650925,9.698088,8.60,0.07,12,4.200,0,92,-5,6,2
214578,-0.03,-0.01,1.01,-0.43,-0.67,0.12,-3.50,-19.00,39.00,53.650925,9.698088,8.60,0.07,12,4.080,-1,103,-4,6,2
214678,-0.01,-0.01,1.00,0.00,0.49,-0.37,-5.50,-21.00,40.00,53.650925,9.698088,8.60,0.07,12,4.060,0,105,-4,6,2
214778,-0.00,-0.01,1.00,-0.06,-0.55,0.24,-4.50,-21.00,36.00,53.650925,9.698088,8.60,0.07,12,4.060,0,102,-4,6,2
214879,-0.03,0.00,1.00,0.06,1.10,0.12,-2.50,-19.00,40.00,53.650925,9.698088,8.60,0.07,12,4.070,-1,101,-4,6,2
214979,0.01,-0.02,0.99,0.06,1.71,-0.55,-2.50,-19.00,36.00,53.650925,9.698088,8.60,0.17,12,4.071,0,96,-4,6,2
215081,0.05,-0.01,1.00,0.00,-1.77,0.55,-2.50,-22.00,36.00,53.650925,9.698088,8.60,0.06,12,4.130,3,91,-4,6,2
215181,-0.07,-0.01,0.99,0.00,-0.79,0.24,-1.50,-20.00,40.00,53.650925,9.698088,8.60,0.06,12,4.090,-3,101,-4,6,2
215281,0.01,-0.01,1.00,0.00,1.04,-0.37,-3.50,-20.00,41.00,53.650925,9.698088,8.60,0.06,12,4.060,0,99,-4,6,2
215381,0.01,-0.01,1.00,0.06,1.10,0.18,-3.50,-21.00,41.00,53.650925,9.698088,8.60,0.06,12,4.020,0,98,-4,6,2
215481,-0.01,-0.01,1.00,-0.31,0.37,-0.06,-2.50,-21.00,37.00,53.650925,9.698088,8.60,0.06,12,4.030,0,97,-4,6,2
215605,0.01,-0.01,0.99,-0.06,0.12,0.18,-3.50,-19.00,43.00,53.650925,9.698088,8.60,0.06,12,4.150,0,99,-4,6,2
215705,0.00,-0.01,1.00,0.06,-0.67,0.12,-4.50,-22.00,35.00,53.650925,9.698088,8.60,0.06,12,4.050,0,101,-4,6,2
215805,-0.02,-0.01,1.00,0.06,0.98,-0.06,-0.50,-21.00,40.00,53.650925,9.698088,8.60,0.06,12,4.070,-1,93,-4,6,2
215905,0.01,-0.01,1.00,0.12,0.92,-0.12,-3.50,-20.00,39.00,53.650925,9.698088,8.60,0.06,12,4.070,0,98,-4,6,2
216005,0.03,-0.01,1.00,-0.06,-0.98,0.06,-5.50,-22.00,40.00,53.650925,9.698088,8.60,0.06,12,4.070,1,100,-4,6,2
216125,-0.02,-0.01,1.00,0.00,-0.73,0.24,-3.50,-20.00,41.00,53.650925,9.698088,8.60,0.06,12,4.010,-1,102,-4,6,2
216225,-0.01,-0.01,1.00,0.06,0.55,-0.24,-4.50,-19.00,39.00,53.650925,9.698088,8.60,0.06,12,4.060,0,104,-4,6,2
216325,0.04,-0.01,0.99,0.06,0.85,0.00,-2.50,-20.00,39.00,53.650925,9.698088,8.60,0.06,12,4.040,2,92,-4,6,2
216425,-0.03,-0.01,1.00,0.06,-0.92,0.24,-4.50,-18.00,41.00,53.650925,9.698088,8.60,0.06,12,4.020,-1,106,-4,6,2
216526,0.00,-0.01,0.99,0.06,0.18,-0.18,-2.50,-22.00,37.00,53.650925,9.698088,8.60,0.06,12,3.980,0,96,-4,6,2
216626,0.01,-0.01,1.01,0.06,0.92,0.00,-4.50,-21.00,41.00,53.650925,9.698088,8.60,0.06,12,4.050,0,101,-4,6,2
216733,0.00,-0.01,1.00,0.12,0.24,0.06,-0.50,-18.00,37.00,53.650925,9.698088,8.60,0.06,12,4.060,0,91,-4,6,2
216833,0.00,-0.01,1.00,0.06,-0.92,0.12,-1.50,-20.00,41.00,53.650925,9.698089,8.60,0.48,12,4.050,0,93,-4,6,2
216933,-0.01,-0.01,1.00,0.12,-0.37,0.12,-5.50,-20.00,36.00,53.650925,9.698089,8.60,0.24,12,4.070,0,105,-4,6,2
217033,-0.00,-0.01,0.99,0.12,0.18,0.00,-4.50,-19.00,41.00,53.650925,9.698089,8.60,0.24,12,4.030,0,103,-4,6,2
217134,-0.01,-0.01,0.99,0.06,0.61,0.06,-3.50,-19.00,35.00,53.650925,9.698089,8.60,0.24,12,4.080,0,100,-4,6,2
217234,0.02,-0.01,1.01,-0.06,-1.16,0.12,-4.50,-20.00,40.00,53.650925,9.698089,8.60,0.24,12,4.040,0,100,-4,6,2
217334,-0.02,-0.01,0.99,0.12,0.55,0.06,-4.50,-21.00,40.00,53.650925,9.698089,8.60,0.24,12,4.110,-1,104,-4,6,2
217434,0.01,-0.01,1.00,0.06,1.46,-0.24,-4.50,-21.00,34.00,53.650925,9.698089,8.60,0.24,12,4.040,0,101,-4,6,2
217534,0.03,-0.01,1.00,0.00,-0.61,0.06,-4.50,-21.00,36.00,53.650925,9.698089,8.60,0.06,12,4.010,1,98,-4,6,2
217634,-0.01,-0.01,0.99,0.12,-1.59,0.49,-3.50,-21.00,34.00,53.650925,9.698089,8.60,0.06,12,4.080,0,100,-4,6,2
217734,-0.02,-0.01,1.00,0.06,1.16,-0.06,-2.50,-21.00,40.00,53.650925,9.698089,8.60,0.09,12,4.070,-1,98,-5,6,2
217834,0.02,-0.01,1.00,0.12,0.55,-0.24,-3.50,-24.00,43.00,53.650925,9.698089,8.60,0.04,12,4.060,1,96,-4,6,2
217935,0.00,-0.01,0.99,0.00,-0.67,0.37,-2.50,-19.00,43.00,53.650925,9.698089,8.60,0.07,12,4.040,0,96,-4,6,2
218035,-0.01,-0.01,1.00,0.12,0.31,-0.06,-3.50,-18.00,41.00,53.650925,9.698089,8.60,0.07,12,4.060,0,102,-4,6,2
218135,0.02,-0.01,1.00,0.12,0.49,-0.12,-3.50,-19.00,38.00,53.650925,9.698089,8.60,0.07,12,4.100,1,98,-4,6,2
218235,0.00,-0.01,1.00,0.06,-0.31,0.18,-2.50,-20.00,40.00,53.650925,9.698089,8.60,0.07,12,4.060,0,96,-4,6,2
218335,-0.01,-0.01,0.99,0.24,-0.31,0.00,-3.50,-19.00,44.00,53.650925,9.698089,8.60,0.07,12,4.100,0,102,-4,6,2
218437,0.01,-0.01,1.01,0.00,1.04,-0.12,-1.50,-18.00,41.00,53.650925,9.698090,8.60,0.11,12,4.140,0,93,-4,6,2
218537,0.01,-0.01,1.00,0.18,-0.37,0.06,-3.50,-21.00,39.00,53.650925,9.698090,8.60,0.20,12,4.060,0,98,-4,6,2
218637,0.01,-0.01,0.99,0.18,-1.40,0.06,-1.50,-21.00,40.00,53.650925,9.698089,8.60,0.11,12,4.070,0,93,-4,6,2
218740,-0.02,-0.01,0.99,0.06,-0.55,0.18,-2.50,-20.00,45.00,53.650925,9.698089,8.60,0.07,12,4.050,-1,99,-4,6,2
218842,-0.01,-0.01,1.00,0.06,1.83,-0.24,-1.50,-19.00,40.00,53.650925,9.698090,8.60,0.06,12,3.970,0,95,-4,6,2
218960,0.03,-0.01,1.00,0.06,-0.49,0.00,-1.50,-18.00,35.00,53.650925,9.698089,8.60,0.22,12,4.000,1,91,-4,6,2
219060,-0.02,-0.01,0.99,0.12,-1.16,0.43,-4.50,-21.00,41.00,53.650925,9.698089,8.60,0.22,12,4.020,-1,104,-4,6,2
219160,-0.02,-0.01,0.99,0.06,0.37,-0.18,-2.50,-22.00,41.00,53.650925,9.698089,8.60,0.06,12,4.040,-1,98,-4,6,2
219260,0.03,-0.01,1.00,0.12,0.73,-0.24,-3.50,-21.00,41.00,53.650925,9.698089,8.60,0.09,12,4.030,1,96,-4,6,2
219360,0.00,-0.01,1.00,0.06,-0.37,0.37,-3.50,-21.00,43.00,53.650925,9.698090,8.60,0.04,12,4.110,0,98,-5,6,2
219460,-0.01,-0.01,1.00,0.00,-1.10,0.12,-1.50,-20.00,44.00,53.650925,9.698090,8.60,0.09,12,4.080,0,95,-5,6,2
219560,-0.01,-0.01,1.00,0.00,0.43,0.00,-3.50,-20.00,40.00,53.650925,9.698089,8.60,0.11,12,4.070,0,100,-4,6,2
219660,-0.01,-0.01,1.00,0.00,1.59,-0.18,-1.50,-21.00,35.00,53.650925,9.698089,8.60,0.15,12,4.050,0,94,-4,6,2
219760,0.02,-0.01,1.00,0.12,-0.18,-0.06,-3.50,-20.00,41.00,53.650925,9.698089,8.60,0.15,12,4.020,1,97,-4,6,2
219860,0.00,-0.01,1.00,0.12,-1.28,0.43,-3.50,-18.00,36.00,53.650925,9.698089,8.60,0.15,12,4.040,0,100,-5,6,2
219960,-0.02,-0.01,1.00,0.06,0.00,-0.12,-2.50,-20.00,39.00,53.650925,9.698089,8.60,0.20,12,3.970,-1,99,-4,6,2
220062,0.01,-0.01,1.00,0.06,0.85,0.00,-2.50,-19.00,38.00,53.650925,9.698089,8.60,0.11,12,4.060,0,96,-4,6,2
220165,-0.01,-0.01,1.00,0.06,0.31,0.00,-5.50,-21.00,39.00,53.650925,9.698089,8.60,0.06,12,4.030,0,105,-4,6,2
220265,0.01,-0.01,1.00,0.06,-0.79,0.00,-2.50,-21.00,39.00,53.650925,9.698089,8.60,0.06,12,4.090,0,95,-4,6,2
220365,-0.01,-0.01,1.00,0.06,-0.55,0.31,-2.50,-20.00,40.00,53.650925,9.698090,8.60,0.06,12,3.970,0,98,-4,6,2
220465,-0.02,-0.01,1.00,0.12,0.67,-0.12,-2.50,-20.00,36.00,53.650925,9.698090,8.60,0.06,12,4.110,-1,98,-4,6,2
220565,0.02,-0.01,1.00,0.12,0.43,-0.12,-2.50,-19.00,43.00,53.650925,9.698090,8.60,0.06,12,4.090,0,95,-5,6,2
220665,0.00,-0.01,1.00,0.06,-0.73,0.18,-4.50,-20.00,40.00,53.650925,9.698089,8.60,0.06,12,3.950,0,102,-4,6,2
220765,-0.01,-0.01,1.00,0.18,-0.31,0.06,-3.50,-18.00,39.00,53.650925,9.698089,8.60,0.06,12,4.070,0,102,-4,6,2
220868,0.01,-0.01,1.00,0.12,0.12,-0.06,-4.50,-19.00,40.00,53.650925,9.698089,8.60,0.06,12,4.030,0,102,-4,6,2
220968,-0.01,-0.01,1.00,0.18,0.00,0.06,-3.50,-20.00,38.00,53.650925,9.698089,8.60,0.30,12,3.990,0,100,-4,6,2
221068,-0.01,-0.01,1.00,0.06,0.55,-0.12,-3.50,-20.00,40.00,53.650925,9.698090,8.60,0.15,12,4.070,0,101,-4,6,2
221168,0.02,-0.01,1.00,0.06,0.31,-0.06,-3.50,-21.00,39.00,53.650925,9.698089,8.60,0.48,12,4.050,1,97,-4,6,2
221268,-0.00,-0.01,0.99,0.12,-0.61,0.18,-5.50,-18.00,37.00,53.650925,9.698089,8.60,0.48,12,3.960,0,106,-4,6,2
221368,-0.01,-0.01,1.01,0.12,-0.73,0.06,-3.50,-21.00,41.00,53.650925,9.698089,8.60,0.48,12,4.060,0,100,-4,6,2
221468,0.00,-0.01,1.00,0.18,-0.61,0.18,-4.50,-21.00,36.00,53.650925,9.698089,8.60,0.48,12,4.050,0,101,-4,6,2
221569,-0.02,-0.01,0.99,0.18,-0.06,0.06,-4.50,-20.00,40.00,53.650925,9.698089,8.60,0.48,12,4.020,-1,104,-4,6,2
221669,0.00,-0.01,1.00,0.18,0.85,-0.12,-2.50,-22.00,43.00,53.650925,9.698089,8.60,0.48,12,4.050,0,96,-5,6,2
221769,0.01,-0.01,0.99,0.06,-0.31,0.18,-2.50,-21.00,41.00,53.650925,9.698089,8.60,0.48,12,3.890,0,95,-4,6,2
221871,-0.01,-0.01,1.00,0.06,-0.12,0.06,-0.50,-20.00,43.00,53.650925,9.698089,8.60,0.48,12,4.080,0,92,-5,6,2
221971,-0.00,-0.01,1.00,0.06,0.24,-0.18,-3.50,-22.00,42.00,53.650925,9.698089,8.60,0.33,12,4.070,0,99,-5,6,2
222072,0.01,-0.01,1.00,0.18,0.00,0.06,-4.50,-19.00,39.00,53.650925,9.698089,8.60,0.31,12,4.020,0,102,-4,6,2
222175,-0.01,-0.01,1.00,0.12,0.31,0.00,-2.50,-20.00,36.00,53.650925,9.698089,8.60,0.33,12,4.100,0,98,-5,6,2
222278,0.03,-0.01,1.02,-0.31,-0.31,-0.06,-5.50,-21.00,41.00,53.650925,9.698089,8.60,0.33,12,4.230,1,101,-4,6,2
222378,-0.03,-0.01,1.00,0.06,-0.55,0.43,-4.50,-18.00,46.00,53.650925,9.698089,8.60,0.33,12,4.070,-1,107,-4,6,2
222478,-0.02,-0.01,1.00,0.06,0.18,-0.37,-2.50,-17.00,48.00,53.650925,9.698089,8.60,0.33,12,4.100,-1,101,-4,6,2
222578,0.04,-0.01,1.00,0.12,0.79,0.12,-4.50,-12.00,46.00,53.650925,9.698089,8.60,0.33,12,4.110,2,102,-5,6,2
222678,-0.02,-0.00,1.00,0.18,0.18,0.06,-5.50,-14.00,43.00,53.650925,9.698089,8.60,0.33,12,4.050,-1,113,-5,6,2
222778,0.01,-0.01,1.00,0.06,-0.43,0.00,-4.50,-10.00,40.00,53.650925,9.698089,8.60,0.33,12,4.070,0,111,-4,6,2
222878,-0.02,-0.01,1.00,0.12,-0.12,0.18,-5.50,-11.00,37.00,53.650925,9.698089,8.60,0.33,12,4.040,0,118,-5,6,2
222978,-0.01,-0.01,1.00,0.18,0.61,-0.18,-4.50,-9.00,40.00,53.650925,9.698089,8.60,0.33,12,4.070,0,117,-4,6,2
223078,0.00,-0.05,0.97,-4.88,3.11,0.06,-1.50,-8.00,36.00,53.650925,9.698089,8.60,0.33,12,4.092,0,98,-4,6,2
223178,-0.01,-0.01,1.00,0.31,-0.67,0.18,-1.50,-9.00,31.00,53.650925,9.698089,8.60,0.33,12,4.100,0,101,-4,6,2
223278,-0.02,-0.01,1.00,0.00,0.18,-0.06,-1.50,-7.00,28.00,53.650925,9.698089,8.60,0.33,12,4.110,-1,105,-4,6,2
223378,0.02,-0.01,1.00,0.24,0.37,-0.12,-1.50,-7.00,30.00,53.650925,9.698089,8.60,0.33,12,4.060,1,96,-4,6,2
223478,-0.02,-0.01,1.00,0.06,-0.49,0.00,-3.50,-8.00,27.00,53.650925,9.698089,8.60,0.33,12,4.060,-1,115,-4,6,2
223578,0.01,-0.01,1.00,0.06,-0.55,0.00,-1.50,-5.00,32.00,53.650925,9.698089,8.60,0.33,12,4.080,0,104,-5,6,2
223678,0.00,-0.01,1.00,0.06,0.67,-0.06,-2.50,-5.00,27.00,53.650925,9.698089,8.60,0.33,12,4.070,0,114,-4,6,2
223778,0.02,-0.01,1.00,0.06,0.00,0.00,-2.50,-6.00,31.00,53.650925,9.698089,8.60,0.33,12,3.990,1,106,-4,6,2
223898,-0.01,-0.01,1.00,0.06,-0.67,0.24,-1.50,-6.00,32.00,53.650925,9.698089,8.60,0.33,12,4.230,0,107,-4,6,2
223998,-0.04,-0.01,1.00,0.18,1.65,-0.12,-3.50,-4.00,29.00,53.650925,9.698089,8.60,0.33,12,4.020,-2,138,-5,6,2
224098,0.03,-0.01,1.00,0.18,1.04,-0.24,-3.50,-9.00,26.00,53.650925,9.698089,8.60,0.33,12,3.950,1,106,-4,6,2
224198,0.02,-0.01,1.00,0.00,-0.73,0.18,-2.50,-7.00,33.00,53.650925,9.698089,8.60,0.33,12,4.100,0,104,-5,6,2
224298,-0.01,-0.01,1.00,-0.06,-0.73,0.12,-1.50,-7.00,35.00,53.650925,9.698089,8.60,0.33,12,4.070,0,103,-4,6,2
224398,-0.04,-0.01,0.99,0.24,0.85,-0.24,-3.50,-4.00,29.00,53.650925,9.698089,8.60,0.33,12,4.110,-2,138,-4,6,2
224516,0.01,-0.01,1.00,0.00,0.61,-0.06,-1.50,-7.00,32.00,53.650925,9.698089,8.60,0.33,12,4.080,0,99,-5,6,2
224616,0.02,-0.01,1.00,0.00,-0.73,0.12,-3.50,-8.00,32.00,53.650925,9.698089,8.60,0.33,12,4.060,1,108,-4,6,2
224716,-0.00,-0.01,0.99,0.12,-0.43,0.00,-0.50,-6.00,36.00,53.650925,9.698089,8.60,0.33,12,4.060,0,95,-5,6,2
224816,-0.03,-0.01,1.00,0.18,0.06,0.12,-2.50,-8.00,33.00,53.650925,9.698089,8.60,0.33,12,4.050,-1,112,-5,6,2
224917,-0.01,-0.01,0.99,0.73,0.49,-0.24,-2.50,-6.00,35.00,53.650925,9.698089,8.60,0.33,12,4.080,0,113,-4,6,2
225017,0.04,-0.01,1.00,0.55,-0.06,-0.06,-3.50,-7.00,32.00,53.650925,9.698089,8.60,0.33,12,4.100,2,107,-4,6,2
225117,0.01,-0.01,1.00,1.46,-1.89,0.24,-2.50,-6.00,31.00,53.650925,9.698089,8.60,0.33,12,4.090,0,109,-4,6,2
225218,-0.03,-0.01,0.99,-0.43,0.31,0.06,-3.50,-6.00,31.00,53.650925,9.698089,8.60,0.33,12,4.100,-1,124,-4,6,2
225318,-0.00,-0.01,1.00,-0.43,1.34,-0.06,-4.50,-5.00,31.00,53.650925,9.698089,8.60,0.33,12,4.060,0,131,-5,6,2
225418,0.03,-0.01,1.00,0.12,-0.49,0.00,-3.50,-5.00,33.00,53.650925,9.698089,8.60,0.33,12,4.070,1,115,-5,6,2
225518,-0.01,-0.01,1.00,-0.06,-0.79,0.24,-3.50,-7.00,30.00,53.650925,9.698089,8.60,0.33,12,4.070,0,118,-4,6,2
225625,-0.01,-0.01,1.00,0.12,0.31,-0.06,-3.50,-8.00,32.00,53.650925,9.698089,8.60,0.33,12,4.020,0,114,-4,6,2
225725,0.00,-0.01,1.00,0.00,0.85,0.00,-1.50,-6.00,30.00,53.650925,9.698089,8.60,0.33,12,4.080,0,103,-4,6,2
225825,0.00,-0.01,1.01,0.12,0.12,-0.12,-3.50,-6.00,30.00,53.650925,9.698089,8.60,0.33,12,4.070,0,118,-4,6,2
225925,0.01,-0.02,1.00,0.18,-1.04,-0.18,-3.50,-7.00,31.00,53.650925,9.698089,8.60,0.33,12,3.971,0,113,-4,6,2
226025,-0.07,-0.10,1.01,-11.78,7.14,-10.86,-2.50,-8.00,32.00,53.650925,9.698089,8.60,0.33,12,4.075,-3,112,-5,6,2
226125,0.05,0.05,1.03,1.22,1.16,-12.88,-3.50,-7.00,30.00,53.650925,9.698089,8.60,0.33,12,4.07-2,2,110,-5,6,2
226225,0.02,0.02,0.98,-0.49,1.34,-0.67,-3.50,-8.00,28.00,53.650925,9.698089,8.60,0.33,12,4.01-1,1,112,-4,6,2
226325,0.07,-0.00,1.01,1.71,0.12,-15.26,-1.50,-8.00,24.00,53.650925,9.698089,8.60,0.33,12,4.070,4,88,-4,6,2
226425,0.04,-0.01,1.01,-1.34,3.42,-7.87,-1.50,-7.00,27.00,53.650925,9.698089,8.60,0.33,12,4.060,2,93,-4,6,2
226525,-0.01,-0.01,1.01,0.24,-0.24,7.02,-5.50,-5.00,29.00,53.650925,9.698089,8.60,0.33,12,4.020,0,137,-4,6,2
226625,0.00,-0.00,1.02,-0.43,0.31,0.24,-3.50,-9.00,30.00,53.650925,9.698089,8.60,0.33,12,3.990,0,110,-4,6,2
226726,-0.02,0.02,0.98,-1.53,1.04,-0.12,-1.50,-6.00,31.00,53.650925,9.698089,8.60,0.33,12,4.060,-1,111,-4,6,2
226826,0.03,-0.01,0.95,1.83,-0.55,-0.24,-1.50,-9.00,30.00,53.650925,9.698089,8.60,0.33,12,4.070,1,94,-4,6,2
226927,0.03,0.02,1.00,-0.85,0.18,-0.06,-1.50,-8.00,34.00,53.650925,9.698089,8.60,0.33,12,4.07-1,1,94,-4,6,2
227027,-0.02,-0.00,1.00,1.59,-1.28,-0.37,-0.50,-7.00,31.00,53.650925,9.698089,8.60,0.33,12,4.060,0,98,-4,6,2
227127,0.01,0.01,1.01,-1.53,-1.22,-0.49,-0.50,-7.00,29.00,53.650925,9.698089,8.70,0.06,12,4.080,0,91,-4,6,2
227227,0.03,-0.02,1.09,-18.68,2.87,-23.07,0.50,-8.00,30.00,53.650925,9.698089,8.70,0.06,12,4.070,1,80,-4,6,2
227327,0.02,0.13,0.97,13.67,-27.59,-38.64,-1.50,-9.00,30.00,53.650925,9.698089,8.70,0.06,12,4.07-7,1,100,-4,6,2
227427,-0.08,0.08,0.93,21.12,-47.67,-13.73,-3.50,-5.00,28.00,53.650925,9.698089,8.70,0.06,12,4.07-5,-4,157,-4,6,2
227527,-0.10,0.03,0.88,-12.08,-2.38,-7.02,-4.50,-2.00,33.00,53.650925,9.698089,8.70,0.06,12,4.07-1,-6,172,-4,6,2
227627,-0.08,-0.02,0.99,-2.50,-10.38,-19.53,-4.50,-3.00,29.00,53.650925,9.698089,8.70,0.06,12,4.061,-4,153,-4,6,2
227727,-0.20,0.03,0.95,4.88,-3.30,5.74,-4.50,2.00,31.00,53.650925,9.698089,8.70,0.07,12,4.07-1,-11,-165,-4,6,2
227827,-0.12,-0.03,1.01,7.63,-0.73,-5.43,-5.50,-1.00,27.00,53.650925,9.698089,8.70,0.07,12,4.111,-6,168,-4,6,2
227927,-0.15,0.05,0.84,5.43,7.45,26.49,-4.50,3.00,35.00,53.650925,9.698089,8.70,0.07,12,4.17-3,-10,-155,-4,6,2
228028,-0.11,-0.02,0.96,2.26,-0.85,-8.48,-3.50,-1.00,31.00,53.650925,9.698089,8.70,0.07,12,4.071,-6,166,-4,6,2
228128,-0.07,0.17,0.87,1.34,-10.19,-15.32,-4.50,0.00,32.00,53.650925,9.698089,8.70,0.07,12,4.07-10,-4,-139,-4,6,2
228233,-0.17,0.06,0.96,-4.76,8.06,22.71,-3.50,-1.00,27.00,53.650925,9.698089,8.70,0.07,12,4.05-3,-10,-175,-4,6,2
228333,-0.11,-0.01,1.01,1.34,0.79,-8.91,-6.50,-1.00,26.00,53.650925,9.698089,8.70,0.07,12,4.060,-6,171,-4,6,2
228433,-0.15,0.05,0.90,0.31,4.03,3.36,-5.50,1.00,30.00,53.650925,9.698089,8.70,0.07,12,4.06-3,-9,-166,-4,6,2
228533,0.01,0.01,1.16,-29.79,35.46,-21.48,-5.50,-1.00,31.00,53.650925,9.698089,8.70,0.07,12,4.050,0,170,-4,6,2
228633,-0.09,0.09,1.06,9.83,-25.70,26.31,-3.50,-3.00,29.00,53.650925,9.698089,8.70,0.07,12,4.06-4,-4,174,-4,6,2
228733,-0.05,-0.05,1.04,6.59,-13.06,-15.56,-4.50,-2.00,30.00,53.650925,9.698088,8.70,0.15,12,4.132,-2,149,-4,6,2
228833,-0.11,0.03,0.89,-1.89,0.67,1.22,-4.50,-2.00,33.00,53.650925,9.698088,8.70,0.15,12,4.10-1,-6,172,-4,6,2
228946,-0.13,-0.02,0.96,0.06,1.22,-2.14,-4.50,-1.00,30.00,53.650925,9.698088,8.70,0.15,12,3.841,-7,168,-4,6,2
229046,-0.02,0.06,1.05,-1.59,-0.49,-1.40,-5.50,-4.00,28.00,53.650925,9.698088,8.70,0.15,12,4.12-3,-1,158,-4,6,2
229146,-0.12,0.03,1.03,-3.05,8.00,15.93,-7.50,-4.00,33.00,53.650925,9.698088,8.70,0.15,12,4.15-1,-6,165,-4,6,2
229246,-0.10,-0.02,0.92,-2.81,1.65,-1.95,-5.50,-3.00,28.00,53.650925,9.698088,8.70,0.15,12,4.101,-6,156,-4,6,2
229346,-0.11,0.00,0.96,2.32,-2.20,1.10,-4.50,-4.00,33.00,53.650925,9.698088,8.70,0.22,12,4.100,-6,154,-4,6,2
229446,-0.08,-0.02,1.08,3.48,8.06,-1.22,-5.50,-1.00,32.00,53.650925,9.698088,8.70,0.11,12,4.100,-4,169,-4,6,2
229547,-0.11,-0.02,0.91,3.91,-8.18,7.57,-3.50,-4.00,33.00,53.650925,9.698088,8.70,0.15,12,4.101,-7,147,-4,6,2
229647,-0.09,0.00,0.98,3.60,-3.97,-1.40,-5.50,-2.00,32.00,53.650925,9.698088,8.70,0.09,12,4.090,-5,166,-4,6,2
229747,-0.12,0.02,0.74,15.38,7.45,1.28,-1.50,-2.00,32.00,53.650925,9.698088,8.70,0.13,12,4.07-1,-9,169,-4,6,2
229851,-0.08,-0.03,0.96,-0.49,4.03,-2.87,-4.50,-4.00,28.00,53.650925,9.698088,8.70,0.04,12,4.071,-4,143,-4,6,2
229953,-0.07,0.01,1.02,-2.38,-1.04,0.37,-4.50,-6.00,29.00,53.650925,9.698088,8.70,0.17,12,4.080,-4,138,-4,6,2
230055,-0.10,0.04,1.12,6.10,-4.58,-0.12,-4.50,-2.00,27.00,53.650925,9.698088,8.70,0.17,12,4.07-1,-5,170,-4,6,2
230155,-0.07,-0.02,0.90,12.88,-1.83,-0.31,-3.50,-5.00,33.00,53.650925,9.698088,8.70,0.13,12,4.091,-4,137,-4,6,2
230262,-0.10,-0.07,0.89,-12.76,11.17,-7.26,-3.50,-3.00,32.00,53.650925,9.698088,8.70,0.22,12,4.164,-6,142,-4,6,2
230363,-0.07,0.02,1.01,-2.38,-3.66,0.49,-5.50,-6.00,28.00,53.650925,9.698088,8.70,0.09,12,4.05-1,-3,143,-4,6,2
230463,-0.06,-0.02,1.06,8.12,-2.93,-2.87,-5.50,-5.00,26.00,53.650925,9.698088,8.70,0.09,12,4.060,-3,142,-4,6,2
230563,-0.10,0.02,0.99,1.89,-2.62,0.31,-5.50,0.00,30.00,53.650925,9.698088,8.70,0.09,12,4.07-1,-5,-176,-4,6,2
230663,-0.07,-0.04,0.99,4.09,0.67,-2.38,-6.50,-4.00,29.00,53.650925,9.698088,8.70,0.09,12,4.112,-4,149,-4,6,2
230763,-0.07,0.05,1.01,-0.92,-2.44,-2.93,-4.50,-3.00,29.00,53.650925,9.698088,8.70,0.09,12,4.10-3,-3,167,-4,6,2
230863,-0.14,-0.01,0.96,-12.15,7.20,5.62,-4.50,-4.00,30.00,53.650925,9.698088,8.70,0.09,12,4.100,-8,153,-4,6,2
230963,-0.10,0.01,0.95,7.87,-1.40,-2.20,-5.50,-3.00,29.00,53.650925,9.698088,8.70,0.22,12,4.090,-6,163,-4,6,2
231063,-0.10,-0.04,1.04,-7.75,-3.91,4.21,-4.50,-4.00,32.00,53.650925,9.698088,8.70,0.06,12,4.062,-5,144,-4,6,2
231176,-0.11,-0.03,0.95,10.44,-5.86,-5.86,-5.50,-3.00,31.00,53.650925,9.698088,8.70,0.06,12,4.081,-6,155,-4,6,2
231276,-0.07,0.10,1.04,1.40,0.37,-6.65,-7.50,-4.00,33.00,53.650925,9.698088,8.70,0.06,12,4.09-5,-3,174,-4,6,2
231376,-0.12,0.01,1.02,6.16,-5.43,0.24,-6.50,-2.00,29.00,53.650925,9.698088,8.70,0.06,12,4.110,-6,170,-4,6,2
231476,-0.07,-0.01,1.03,6.23,-0.92,7.02,-5.50,-3.00,31.00,53.650925,9.698087,8.70,0.06,12,4.120,-3,156,-4,6,2
231576,-0.09,0.00,0.99,-0.85,1.22,-0.31,-5.50,-3.00,29.00,53.650925,9.698087,8.70,0.06,12,3.930,-5,160,-4,6,2
231676,-0.09,0.00,1.04,2.32,4.15,-3.97,-6.50,-2.00,27.00,53.650925,9.698087,8.70,0.06,12,4.070,-4,167,-4,6,2
231776,-0.08,0.32,0.94,14.95,-16.42,-10.68,-7.50,-4.00,31.00,53.650925,9.698087,8.70,0.06,12,4.18-18,-4,-148,-4,6,2
231876,-0.08,-0.05,0.95,1.65,-6.53,17.21,-5.50,-1.00,30.00,53.650925,9.698087,8.70,0.06,12,4.052,-4,162,-4,6,2
231976,-0.13,0.00,0.94,7.39,-5.31,-3.97,-6.50,-2.00,31.00,53.650925,9.698087,8.70,0.13,12,4.060,-7,169,-4,6,2
232076,-0.16,-0.06,0.95,-0.98,10.50,-7.57,-4.50,-2.00,33.00,53.650925,9.698087,8.70,0.07,12,4.103,-9,159,-4,6,2
232176,-0.15,-0.00,0.90,-4.39,0.06,-4.52,-5.50,-3.00,36.00,53.650925,9.698087,8.70,0.04,12,4.110,-9,164,-4,6,2
232322,-0.10,0.01,0.97,6.53,-9.95,0.98,-6.50,-1.00,28.00,53.650925,9.698087,8.70,0.07,12,4.060,-5,175,-4,6,2
232422,-0.04,-0.08,0.89,3.97,-8.67,0.43,-5.50,0.00,30.00,53.650925,9.698087,8.70,0.07,12,3.935,-2,158,-4,6,2
232522,-0.05,-0.02,0.92,8.42,-0.24,-2.87,-3.50,-4.00,27.00,53.650925,9.698087,8.70,0.07,12,4.071,-3,136,-4,6,2
232622,-0.16,0.03,0.91,-6.04,1.95,1.04,-6.50,-6.00,27.00,53.650925,9.698087,8.70,0.07,12,4.02-1,-10,154,-4,6,2
232723,-0.09,0.03,1.03,5.19,-4.88,-0.43,-4.50,-5.00,27.00,53.650925,9.698087,8.70,0.07,12,4.16-1,-5,148,-4,6,2
232823,0.02,-0.08,1.14,8.54,1.59,5.74,-4.50,-4.00,29.00,53.650925,9.698087,8.70,0.07,12,4.014,0,123,-4,6,2
232924,-0.13,-0.02,0.98,1.04,3.11,-9.34,-6.50,-1.00,29.00,53.650925,9.698087,8.70,0.07,12,4.180,-7,171,-4,6,2
233024,-0.15,-0.03,0.95,-2.99,2.01,-1.77,-6.50,-3.00,24.00,53.650925,9.698087,8.70,0.07,12,4.051,-8,159,-4,6,2
233124,-0.07,0.01,0.95,1.95,-2.01,-1.04,-5.50,-2.00,30.00,53.650925,9.698087,8.70,0.07,12,4.040,-4,167,-4,6,2
233224,-0.13,0.09,1.05,2.20,7.51,6.29,-5.50,-2.00,28.00,53.650925,9.698087,8.70,0.07,12,4.03-4,-7,-178,-4,6,2
233324,-0.13,0.00,1.01,5.62,-1.83,-2.14,-4.50,-6.00,28.00,53.650925,9.698087,8.70,0.07,12,4.040,-7,143,-4,6,2
233424,-0.09,-0.01,0.99,0.31,-1.53,-0.49,-6.50,-6.00,32.00,53.650925,9.698087,8.70,0.07,12,4.040,-5,145,-4,6,2
233524,-0.07,0.03,1.04,5.55,-7.51,-3.78,-5.50,-5.00,29.00,53.650925,9.698087,8.70,0.07,12,4.07-1,-3,151,-4,6,2
233624,-0.13,0.02,0.90,-8.97,10.80,1.83,-6.50,-7.00,31.00,53.650928,9.698087,8.70,0.20,12,4.100,-8,149,-4,6,2
233724,-0.07,-0.03,0.83,7.51,3.72,4.46,-4.50,-4.00,31.00,53.650928,9.698087,8.70,0.20,12,4.091,-5,145,-4,6,2
233824,-0.10,0.01,0.93,0.85,1.53,1.16,-4.50,-7.00,27.00,53.650928,9.698087,8.70,0.20,12,4.100,-6,138,-4,6,2
233924,-0.08,0.01,1.00,3.42,-5.13,-0.73,-4.50,-5.00,29.00,53.650928,9.698087,8.70,0.20,12,4.070,-4,145,-4,6,2
234037,-0.09,-0.04,1.06,6.35,-1.22,4.58,-5.50,-6.00,27.00,53.650928,9.698087,8.70,0.20,12,4.062,-4,137,-4,6,2
234137,-0.07,0.03,1.01,-6.53,3.30,-1.71,-5.50,-6.00,29.00,53.650928,9.698087,8.70,0.20,12,4.10-1,-4,146,-4,6,2
234237,0.01,0.11,0.87,14.40,-11.84,-1.34,-7.50,-5.00,30.00,53.650928,9.698087,8.70,0.20,12,4.02-7,0,171,-4,6,2
234343,-0.06,0.01,0.96,2.75,-8.06,2.20,-5.50,-5.00,30.00,53.650928,9.698087,8.70,0.20,12,4.100,-3,148,-4,6,2
234459,-0.08,0.00,1.01,-3.05,-1.16,-1.89,-4.50,-4.00,32.00,53.650928,9.698087,8.70,0.04,12,4.090,-4,150,-4,6,2
234559,-0.08,-0.01,1.06,2.20,4.21,-3.05,-4.50,-4.00,32.00,53.650928,9.698087,8.60,0.04,12,4.070,-4,147,-4,6,2
234659,-0.12,0.04,1.09,-6.59,3.17,2.69,-5.50,-5.00,28.00,53.650928,9.698087,8.60,0.11,12,4.05-1,-6,154,-4,6,2
234759,-0.10,-0.03,0.89,-13.67,10.93,10.80,-4.50,-5.00,28.00,53.650928,9.698087,8.60,0.11,12,4.032,-6,141,-4,6,2
234859,-0.07,-0.00,0.97,5.07,0.37,-2.93,-5.50,-5.00,27.00,53.650928,9.698087,8.60,0.11,12,4.080,-4,146,-4,6,2
234959,-0.08,-0.02,0.98,0.79,-2.62,-1.59,-1.50,-7.00,30.00,53.650928,9.698087,8.60,0.15,12,4.080,-4,117,-4,6,2
235059,-0.09,0.03,1.07,-7.20,2.75,1.83,-6.50,-8.00,31.00,53.650928,9.698087,8.60,0.09,12,4.11-1,-4,141,-4,6,2
235159,-0.12,0.01,1.00,-7.69,5.00,9.64,-5.50,-6.00,30.00,53.650928,9.698087,8.60,0.11,12,4.100,-6,147,-4,6,2
235259,-0.17,-0.06,0.88,1.22,5.37,-4.03,-4.50,-4.00,31.00,53.650928,9.698087,8.60,0.15,12,4.113,-10,149,-4,6,2
235359,-0.11,-0.01,0.91,-3.78,-0.49,0.98,-4.50,-7.00,29.00,53.650928,9.698087,8.60,0.15,12,4.080,-6,136,-4,6,2
235459,-0.09,0.01,1.00,0.79,-0.06,-0.49,-7.50,-6.00,30.00,53.650928,9.698087,8.60,0.15,12,4.100,-5,150,-4,6,2
235570,-0.08,0.08,1.09,3.36,1.59,0.37,-5.50,-7.00,27.00,53.650928,9.698087,8.60,0.15,12,4.08-4,-4,145,-4,6,2
235670,-0.08,-0.08,1.00,1.89,-6.04,-38.39,-5.50,-6.00,29.00,53.650928,9.698087,8.60,0.15,12,4.094,-4,132,-4,6,2
235770,-0.16,-0.06,1.03,37.23,-34.73,-38.09,-7.50,-5.00,29.00,53.650928,9.698087,8.60,0.15,12,4.113,-8,151,-4,6,2
235870,-0.02,-0.03,1.04,27.83,-34.55,16.66,-10.50,-6.00,27.00,53.650928,9.698087,8.60,0.15,12,4.101,-1,148,-4,6,2
235971,-0.25,0.05,1.10,-36.38,27.53,11.47,-10.50,-2.00,32.00,53.650928,9.698087,8.60,0.07,12,4.07-2,-12,177,-4,6,2
236071,-0.14,-0.02,1.02,6.71,9.09,-50.84,-8.50,-5.00,28.00,53.650928,9.698087,8.60,0.24,12,4.101,-7,155,-4,6,2
236171,-0.15,-0.09,0.98,2.01,-1.95,-0.06,-10.50,0.00,28.00,53.650928,9.698087,8.60,0.24,12,4.114,-8,171,-4,6,2
236271,-0.14,-0.07,1.01,3.60,-2.56,0.06,-11.50,-4.00,26.00,53.650928,9.698087,8.60,0.24,12,4.104,-7,159,-4,6,2
236374,-0.15,-0.08,0.97,2.50,-0.31,-0.43,-15.50,-2.00,24.00,53.650928,9.698087,8.60,0.24,12,4.114,-9,169,-4,6,2
236474,-0.18,-0.09,0.96,-1.89,1.40,0.73,-12.50,-3.00,27.00,53.650928,9.698087,8.60,0.24,12,4.085,-10,162,-4,6,2
236574,-0.12,0.01,0.95,1.71,-1.77,7.32,-12.50,-1.00,28.00,53.650928,9.698087,8.60,0.24,12,4.080,-7,177,-4,6,2
236674,-0.18,-0.03,1.00,-10.68,12.08,-10.01,-12.50,-2.00,30.00,53.650928,9.698087,8.60,0.24,12,4.061,-10,170,-4,6,2
236774,-0.09,-0.07,0.99,-5.68,8.24,2.81,-12.50,-4.00,26.00,53.650928,9.698087,8.60,0.24,12,4.063,-5,158,-4,6,2
236874,-0.15,-0.12,1.02,11.96,-13.31,-9.95,-11.50,-5.00,27.00,53.650928,9.698087,8.60,0.24,12,3.946,-8,152,-5,6,2
236974,-0.17,-0.13,0.99,-6.23,-13.43,-1.89,-11.50,-3.00,24.00,53.650928,9.698086,8.60,0.09,12,4.067,-9,159,-4,6,2
237074,-0.26,0.14,0.88,-4.27,0.67,10.62,-12.50,0.00,30.00,53.650928,9.698086,8.60,0.15,12,4.12-8,-16,-169,-4,6,2
237174,-0.20,-0.19,1.02,30.82,-36.68,8.18,-11.50,-1.00,30.00,53.650928,9.698087,8.60,0.15,12,4.0710,-10,160,-5,6,2
237274,-0.22,-0.10,1.10,-34.73,48.40,28.99,-14.50,2.00,29.00,53.650928,9.698087,8.60,0.15,12,4.145,-11,178,-4,6,2
237374,-0.19,-0.17,0.95,39.12,-7.26,11.23,-13.50,1.00,25.00,53.650928,9.698087,8.60,0.15,12,4.129,-10,171,-4,6,2
237474,-0.30,-0.14,0.92,19.65,-23.32,7.51,-17.50,-1.00,26.00,53.650928,9.698087,8.60,0.15,12,4.068,-18,170,-4,6,2
237574,-0.34,-0.30,0.76,88.07,-24.35,2.50,-22.50,5.00,28.00,53.650928,9.698087,8.60,0.15,12,4.0721,-22,177,-4,6,2
237674,-0.30,-0.02,0.60,47.00,-7.45,-11.29,-25.50,5.00,19.00,53.650928,9.698087,8.60,0.15,12,4.042,-26,-171,-4,6,2
237800,-0.54,-0.22,0.87,-38.21,6.59,-162.05,-29.50,8.00,21.00,53.650928,9.698087,8.60,0.15,12,4.0614,-31,-169,-4,6,2
237900,-0.41,-0.34,0.73,-22.95,-99.18,-54.38,-23.50,17.00,15.00,53.650928,9.698087,8.60,0.15,12,4.0425,-26,-152,-4,6,2
238001,-0.93,-0.17,0.59,89.54,-67.57,-105.47,-28.50,25.00,5.00,53.650928,9.698087,8.60,0.15,12,3.9815,-56,-123,-4,6,2
238101,-0.66,-0.31,0.35,56.46,-42.66,64.21,-26.50,34.00,0.00,53.650928,9.698087,8.60,0.15,12,4.0341,-54,-110,-4,6,2
238201,-0.72,-0.52,0.29,34.79,-45.53,9.52,-30.50,34.00,-8.00,53.650928,9.698087,8.60,0.15,12,4.0160,-50,-107,-4,6,2
238301,-0.78,-0.39,0.12,-19.78,-40.04,2.81,-30.50,34.00,-8.00,53.650928,9.698087,8.60,0.15,12,4.0073,-62,-100,-4,6,2
238401,-0.83,-0.23,0.10,43.03,-44.92,26.43,-33.50,38.00,-15.00,53.650928,9.698087,8.60,0.15,12,4.0766,-73,-84,-4,6,2
238503,-0.75,-0.10,0.19,20.45,-40.28,4.52,-33.50,42.00,-12.00,53.650928,9.698087,8.60,0.15,12,4.0327,-73,-87,-4,6,2
238603,-0.79,-0.30,0.06,17.64,46.87,-35.40,-29.50,40.00,-16.00,53.650928,9.698087,8.60,0.15,12,4.0678,-69,-83,-4,6,2
238703,-0.89,-0.30,-0.02,-13.24,-5.49,-8.73,-26.50,42.00,-14.00,53.650928,9.698087,8.60,0.15,12,4.0893,-71,-79,-4,6,2
238803,-0.96,-0.12,0.11,27.04,-28.50,4.94,-27.50,43.00,-14.00,53.650928,9.698087,8.60,0.15,12,4.0349,-80,-79,-4,6,2
238903,-0.95,-0.19,-0.01,-0.37,28.56,-20.94,-26.50,44.00,-14.00,53.650928,9.698087,8.60,0.15,12,4.0093,-78,-72,-4,6,2
239003,-0.93,-0.10,0.09,19.71,-26.86,4.33,-26.50,44.00,-15.00,53.650928,9.698087,8.60,0.15,12,4.0446,-81,-77,-4,6,2
239104,-0.61,-0.15,0.02,15.50,-10.93,-10.50,-23.50,46.00,-13.00,53.650928,9.698087,8.60,0.15,12,4.0483,-76,-77,-4,6,2
239204,-1.24,0.11,0.11,36.68,-61.16,31.98,-23.50,47.00,-15.00,53.650928,9.698087,8.60,0.15,12,4.07-46,-82,-50,-4,6,2
239304,-0.88,-0.28,-0.07,1.95,70.07,-48.58,-21.50,46.00,-11.00,53.650928,9.698087,8.60,0.15,12,4.06103,-71,-73,-4,6,2
239404,-1.00,-0.07,0.20,-4.52,-68.12,11.47,-17.50,49.00,-13.00,53.650928,9.698087,8.60,0.15,12,4.0418,-77,-80,-5,6,2
239504,-0.60,0.02,0.02,4.33,-11.78,17.58,-19.50,46.00,-9.00,53.650928,9.698087,8.60,0.15,12,4.01-54,-87,-51,-4,6,2
239604,-1.33,0.05,0.06,33.87,-42.48,6.53,-25.50,47.00,-17.00,53.650928,9.698087,8.60,0.15,12,4.07-42,-86,-47,-4,6,2
239704,-0.91,-0.05,-0.02,-21.91,49.87,-33.20,-21.50,47.00,-9.00,53.650928,9.698087,8.60,0.15,12,4.07115,-86,2,-4,6,2
239804,-0.88,0.06,0.15,2.93,-21.00,-20.32,-17.50,50.00,-13.00,53.650928,9.698087,8.60,0.15,12,4.07-20,-79,-76,-4,6,2
239904,-0.95,0.04,0.08,-8.00,57.80,-29.48,-12.50,53.00,-12.00,53.650928,9.698087,8.60,0.15,12,4.06-24,-84,-75,-4,6,2
240006,-0.81,0.25,0.09,-4.46,-138.49,76.84,-17.50,49.00,-19.00,53.650928,9.698087,8.60,0.15,12,4.01-70,-71,23,-4,6,2
240106,-0.96,-0.03,-0.07,9.89,96.98,-59.27,-15.50,49.00,-12.00,53.650928,9.698087,8.60,0.15,12,4.08160,-85,74,-4,6,2
240206,-0.85,0.04,0.11,-23.80,20.20,0.85,-19.50,47.00,-14.00,53.650928,9.698087,8.60,0.15,12,4.06-19,-82,-72,-4,6,2
240306,-0.98,-0.01,0.01,6.47,40.10,-19.71,-16.50,49.00,-12.00,53.650928,9.698087,8.60,0.15,12,4.0645,-89,-75,-4,6,2
240408,-0.81,0.01,0.04,10.13,-31.49,-0.85,-12.50,49.00,-15.00,53.650928,9.698087,8.60,0.15,12,4.23-12,-86,-72,-4,6,2
240508,-0.98,0.02,-0.02,33.45,29.30,-35.34,-17.50,52.00,-20.00,53.650928,9.698087,8.60,0.15,12,4.07-130,-88,67,-4,6,2
240608,-1.12,0.01,-0.06,4.46,-40.28,15.75,-13.50,49.00,-18.00,53.650928,9.698087,8.60,0.15,12,4.06-166,-87,71,-4,6,2
240708,-1.01,0.11,0.03,14.22,-2.93,2.26,-13.50,51.00,-20.00,53.650928,9.698087,8.60,0.15,12,4.07-76,-83,11,-4,6,2
240808,-0.78,0.07,-0.08,-1.95,10.31,-5.68,-10.50,52.00,-19.00,53.650928,9.698087,8.60,0.15,12,4.08-142,-82,70,-4,6,2
240908,-1.09,0.11,-0.02,17.40,0.43,-1.65,-15.50,52.00,-16.00,53.650928,9.698087,8.60,0.15,12,4.08-99,-84,60,-4,6,2
241008,-0.92,0.15,-0.03,-5.98,10.68,-3.30,-11.50,51.00,-15.00,53.650928,9.698087,8.60,0.15,12,4.05-100,-80,60,-4,6,2
241108,-0.92,0.17,0.05,2.01,-13.43,6.29,-11.50,52.00,-15.00,53.650928,9.698087,8.60,0.15,12,4.02-72,-79,-9,-4,6,2
241208,-0.87,0.07,-0.04,-4.15,12.39,-3.30,-14.50,52.00,-13.00,53.650928,9.698087,8.60,0.15,12,4.02-116,-84,72,-4,6,2
241309,-0.87,0.13,-0.06,-11.72,-28.20,5.86,-12.50,50.00,-20.00,53.650928,9.698087,8.60,0.15,12,3.99-115,-80,63,-4,6,2
241409,-1.03,0.09,-0.08,13.24,8.67,-18.68,-11.50,50.00,-20.00,53.650928,9.698087,8.60,0.15,12,4.05-129,-83,66,-4,6,2
241509,-0.95,0.08,-0.07,-6.41,-23.32,10.86,-13.50,49.00,-22.00,53.650928,9.698087,8.60,0.15,12,4.19-132,-83,65,-4,6,2
241609,-1.04,0.10,-0.06,17.76,-32.29,22.64,-13.50,48.00,-22.00,53.650928,9.698087,8.60,0.15,12,4.06-122,-83,62,-4,6,2
241709,-0.90,0.06,-0.07,7.32,35.64,-22.03,-10.50,51.00,-20.00,53.650928,9.698087,8.60,0.15,12,4.07-138,-83,67,-4,6,2
241810,-0.78,0.12,-0.06,10.01,-7.51,7.75,-13.50,51.00,-18.00,53.650928,9.698087,8.60,0.15,12,4.02-115,-80,67,-4,6,2
241910,-0.90,0.17,-0.09,-0.49,19.23,-10.31,-11.50,51.00,-19.00,53.650928,9.698087,8.60,0.15,12,4.04-119,-78,67,-4,6,2
242010,-0.90,0.15,0.01,-9.03,27.65,-8.06,-11.50,51.00,-17.00,53.650928,9.698085,8.60,0.15,12,4.07-86,-80,35,-4,6,2
242111,-1.00,0.13,0.01,3.42,37.05,-5.80,-11.50,52.00,-16.00,53.650928,9.698085,8.60,0.33,12,4.04-83,-82,28,-4,6,2
242226,-0.79,0.11,0.02,-16.05,33.39,-13.49,-10.50,50.00,-12.00,53.650928,9.698085,8.60,0.33,12,4.23-80,-81,20,-4,6,2
242326,-0.98,0.18,0.07,10.74,20.39,-9.64,-11.50,52.00,-12.00,53.650928,9.698085,8.60,0.33,12,4.09-67,-78,-36,-4,6,2
242435,-0.77,0.27,0.15,-23.25,48.52,-18.19,-10.50,50.00,-13.00,53.650928,9.698085,8.60,0.33,12,4.06-60,-68,-56,-4,6,2
242536,-0.80,0.38,0.32,-3.60,12.02,11.96,-9.50,50.00,-7.00,53.650928,9.698085,8.60,0.22,12,4.01-50,-58,-87,-4,6,2
242636,-0.81,0.09,0.19,0.00,45.17,-44.92,-7.50,50.00,-6.00,53.650928,9.698085,8.60,0.69,12,4.07-26,-75,-84,-4,6,2
242737,-0.96,0.27,0.34,-22.83,-27.65,49.44,-5.50,49.00,-4.00,53.650928,9.698085,8.60,0.19,12,4.02-37,-65,-87,-4,6,2
242837,-0.79,0.20,0.41,-3.11,39.12,7.45,-8.50,50.00,-3.00,53.650928,9.698085,8.60,0.19,12,4.07-25,-60,-92,-4,6,2
242938,-0.83,0.14,0.25,-48.10,-24.41,12.02,-12.50,48.00,10.00,53.650928,9.698085,8.60,0.19,12,4.07-29,-70,-109,-4,6,2
243038,-0.73,0.36,0.71,-41.63,136.96,-1.71,-11.50,43.00,23.00,53.650928,9.698085,8.60,0.19,12,3.96-26,-42,-119,-4,6,2
243138,-0.70,0.25,0.71,49.26,88.68,-42.60,-9.50,32.00,25.00,53.650928,9.698086,8.40,1.37,12,4.08-19,-42,-125,-5,6,2
243238,-0.58,0.29,0.78,37.05,32.23,-34.48,-10.50,28.00,33.00,53.650928,9.698086,8.40,0.41,12,4.06-20,-34,-129,-4,6,2
243338,-0.50,0.21,0.93,34.91,45.23,-22.52,-11.50,22.00,36.00,53.650928,9.698086,8.40,0.78,12,4.06-12,-27,-134,-4,6,2
243438,-0.48,0.19,0.92,22.64,6.77,-5.92,-11.50,18.00,34.00,53.650928,9.698086,8.50,0.43,12,4.23-11,-27,-138,-4,6,2
243538,-0.40,0.15,0.86,22.52,5.13,-2.14,-13.50,20.00,36.00,53.650928,9.698086,8.50,0.43,12,4.10-10,-24,-138,-4,6,2
243638,-0.39,0.09,0.83,-9.52,9.28,-4.27,-12.50,21.00,35.00,53.650928,9.698086,8.50,0.39,12,4.09-6,-24,-137,-4,6,2
243738,-0.41,0.17,0.88,-5.25,2.50,-4.33,-13.50,22.00,35.00,53.650928,9.698086,8.50,0.22,12,3.98-11,-24,-135,-4,6,2
243838,-0.39,0.14,0.94,1.34,13.61,-4.46,-12.50,18.00,35.00,53.650928,9.698086,8.50,0.13,12,3.94-8,-22,-138,-4,6,2
243938,-0.40,0.18,0.86,3.85,-20.63,0.61,-13.50,19.00,36.00,53.650928,9.698086,8.50,0.06,12,4.06-12,-24,-138,-4,6,2
244038,-0.35,0.18,0.97,-27.95,-61.58,1.04,-13.50,21.00,30.00,53.650928,9.698086,8.50,0.06,12,4.04-10,-19,-132,-4,6,2
244149,-0.51,0.19,0.87,-37.66,-88.56,13.43,-11.50,26.00,32.00,53.650928,9.698086,8.50,0.06,12,4.04-11,-29,-130,-4,6,2
244250,-0.76,0.15,0.66,-0.12,-77.15,19.59,-11.50,29.00,27.00,53.650928,9.698086,8.40,0.22,12,4.04-13,-48,-132,-4,6,2
244350,-0.92,0.22,0.39,12.39,-45.23,26.43,-13.50,36.00,24.00,53.650928,9.698086,8.40,0.26,12,4.07-29,-64,-131,-4,6,2
244612,-0.82,0.13,0.47,5.00,2.81,-1.10,-15.50,39.00,18.00,53.650928,9.698085,8.40,0.59,12,4.07-15,-59,-122,-4,6,2
244712,-0.87,0.16,0.40,11.23,-9.77,-1.04,-15.50,39.00,17.00,53.650928,9.698085,8.40,0.59,12,4.06-21,-63,-123,-4,6,2
244812,-0.81,0.12,0.43,3.72,-6.04,2.14,-16.50,39.00,16.00,53.650928,9.698085,8.40,0.59,12,4.09-16,-61,-121,-4,6,2
244912,-0.87,0.05,0.43,0.98,-6.53,12.39,-15.50,39.00,14.00,53.650928,9.698085,8.40,0.59,12,4.09-7,-63,-117,-4,6,2
245012,-0.85,0.09,0.40,-2.81,19.96,2.14,-15.50,42.00,16.00,53.650928,9.698085,8.40,0.59,12,4.11-12,-64,-118,-4,6,2
245112,-0.83,0.08,0.31,-6.53,70.80,-18.19,-16.50,37.00,15.00,53.650928,9.698085,8.40,0.59,12,4.06-14,-69,-121,-4,6,2
245212,-0.80,0.26,0.60,20.94,157.04,-20.45,-15.50,29.00,22.00,53.650928,9.698085,8.40,0.59,12,4.00-23,-50,-134,-4,6,2
245312,-0.35,0.05,0.95,42.72,73.30,7.39,-13.50,28.00,29.00,53.650928,9.698085,8.40,0.59,12,4.02-3,-19,-127,-4,6,2
245412,-0.46,0.00,0.90,66.16,27.71,-35.40,-18.50,23.00,32.00,53.650928,9.698085,8.40,0.59,12,4.090,-27,-143,-4,6,2
245512,-0.36,0.08,0.85,59.63,55.48,-63.60,-21.50,18.00,33.00,53.650928,9.698085,8.40,0.59,12,4.08-5,-22,-148,-4,6,2
245612,-0.46,-0.10,0.88,65.49,7.14,-71.59,-22.50,19.00,30.00,53.650928,9.698085,8.40,0.59,12,4.096,-27,-153,-4,6,2
245712,-0.44,-0.05,0.61,-16.97,35.95,-49.32,-21.50,19.00,32.00,53.650928,9.698085,8.40,0.59,12,3.974,-35,-153,-4,6,2
245812,-0.25,-0.05,1.07,-1.53,15.20,-93.57,-19.50,20.00,28.00,53.650928,9.698085,8.40,0.59,12,4.032,-12,-143,-4,6,2
245914,-0.35,-0.04,0.85,10.19,-19.59,-81.30,-17.50,19.00,35.00,53.650928,9.698085,8.40,0.59,12,4.082,-22,-149,-4,6,2
246015,-0.47,-0.18,0.50,49.87,104.80,-136.47,-15.50,23.00,35.00,53.650928,9.698085,8.40,0.59,12,4.0419,-42,-154,-4,6,2
246115,-0.11,-0.01,1.01,32.71,9.70,-38.76,-12.50,22.00,33.00,53.650928,9.698085,8.40,0.59,12,4.070,-5,-125,-4,6,2
246215,-0.10,-0.01,0.93,-17.15,-18.43,-49.80,-11.50,24.00,33.00,53.650928,9.698085,8.40,0.59,12,4.060,-5,-122,-4,6,2
246315,-0.35,-0.05,0.97,4.88,102.23,-59.14,-7.50,30.00,32.00,53.650928,9.698085,8.40,0.59,12,4.062,-19,-122,-4,6,2
246415,0.04,0.04,0.94,-1.22,31.01,-50.11,-3.50,22.00,37.00,53.650928,9.698085,8.40,0.59,12,4.08-2,2,-94,-4,6,2
246520,-0.29,-0.04,0.76,-3.97,132.69,-77.76,-2.50,24.00,38.00,53.650928,9.698085,8.40,0.59,12,4.072,-21,-126,-4,6,2
246620,-0.01,0.04,1.01,20.69,-66.71,-14.22,-0.50,16.00,41.00,53.650928,9.698085,8.40,0.59,12,4.08-2,0,-91,-4,6,2
246720,0.05,0.01,0.93,5.43,1.95,7.81,-0.50,17.00,38.00,53.650928,9.698085,8.40,0.59,12,4.070,2,-85,-4,6,2
246834,-0.03,0.14,1.03,-14.89,32.10,-0.37,-2.50,16.00,45.00,53.650928,9.698085,8.40,0.59,12,4.01-7,-1,-100,-4,6,2
246934,0.03,0.02,1.06,2.44,-6.65,-0.18,-0.50,18.00,43.00,53.650925,9.698085,8.20,0.30,12,4.080,1,-87,-4,6,2
247034,0.06,0.01,0.90,13.18,3.42,-26.43,-0.50,17.00,32.00,53.650925,9.698085,8.20,0.30,12,3.960,3,-85,-4,6,2
247138,0.04,0.07,0.93,-12.08,29.17,2.01,-0.50,15.00,43.00,53.650925,9.698085,8.20,0.30,12,4.06-4,2,-85,-4,6,2
247238,0.06,-0.02,1.08,2.08,42.66,1.04,-1.50,14.00,44.00,53.650925,9.698085,8.20,0.30,12,4.050,3,-85,-4,6,2
247338,0.10,-0.02,1.01,-5.07,-8.00,1.46,-1.50,13.00,41.00,53.650925,9.698085,8.20,0.52,12,4.061,5,-77,-4,6,2
247438,-0.02,0.05,0.93,2.14,1.40,0.31,-0.50,14.00,41.00,53.650925,9.698085,8.20,0.52,12,4.06-3,-1,-94,-4,6,2
247538,0.06,-0.00,1.03,-6.71,-9.95,-0.61,-0.50,17.00,43.00,53.650925,9.698085,8.20,0.30,12,4.070,3,-83,-4,6,2
247638,0.01,0.02,1.02,-4.52,-7.08,-0.37,-1.50,18.00,42.00,53.650925,9.698085,8.20,0.31,12,4.08-1,0,-92,-4,6,2
247738,0.01,0.03,1.02,-22.34,-37.17,-0.67,-0.50,17.00,43.00,53.650925,9.698085,8.10,0.24,12,4.09-1,0,-89,-4,6,2
247838,-0.05,0.07,0.92,-8.67,-12.08,0.12,-1.50,20.00,41.00,53.650925,9.698085,8.10,0.33,12,4.11-4,-3,-99,-4,6,2
247938,-0.03,0.05,1.00,0.67,5.49,0.67,-1.50,18.00,41.00,53.650925,9.698085,8.10,0.24,12,4.04-3,-1,-98,-4,6,2
248038,0.01,0.04,1.02,-1.83,-4.52,-0.49,-0.50,16.00,38.00,53.650925,9.698085,8.10,0.24,12,4.05-2,0,-90,-4,6,2
248138,-0.03,0.05,0.99,0.00,-0.92,-0.24,1.50,18.00,35.00,53.650925,9.698085,8.10,0.24,12,4.01-2,-1,-89,-4,6,2
248238,-0.03,0.04,1.02,0.00,0.43,0.18,0.50,17.00,40.00,53.650925,9.698085,8.10,0.24,12,4.11-2,-1,-92,-4,6,2
248338,-0.03,0.05,0.99,0.12,1.65,0.37,-0.50,17.00,44.00,53.650925,9.698085,8.10,0.24,12,4.00-2,-1,-95,-4,6,2
248438,0.00,0.04,1.01,0.12,-0.12,0.12,-0.50,17.00,46.00,53.650925,9.698085,8.10,0.11,12,4.08-2,0,-91,-4,6,2
248542,-0.03,0.05,0.98,0.18,-0.37,-0.24,-0.50,19.00,38.00,53.650925,9.698085,8.10,0.02,12,4.06-2,-1,-94,-4,6,2
248642,-0.04,0.04,1.02,0.00,-0.37,0.00,-2.50,18.00,36.00,53.650925,9.698085,8.10,0.19,12,4.01-2,-1,-100,-4,6,2
248742,-0.01,0.05,1.00,0.18,1.59,0.43,-2.50,18.00,42.00,53.650925,9.698085,8.10,0.04,12,4.07-2,0,-98,-4,6,2
248842,-0.02,0.05,1.00,0.06,-0.79,-0.24,-1.50,17.00,42.00,53.650925,9.698085,8.10,0.04,12,4.06-2,0,-96,-4,6,2
248942,-0.03,0.05,1.01,0.18,0.49,-0.06,-1.50,17.00,42.00,53.650925,9.698085,8.10,0.11,12,4.05-2,-1,-98,-4,6,2
249042,-0.03,0.05,1.00,0.18,0.92,0.24,0.50,17.00,41.00,53.650925,9.698085,8.10,0.11,12,4.06-2,-1,-91,-4,6,2
249142,-0.02,0.05,0.99,-0.06,-0.06,0.00,-1.50,13.00,36.00,53.650925,9.698085,8.10,0.11,12,4.05-2,0,-98,-4,6,2
249242,-0.02,0.04,1.00,0.12,-0.31,0.18,0.50,18.00,43.00,53.650925,9.698085,8.10,0.11,12,4.13-2,0,-90,-4,6,2
249342,0.00,0.04,1.01,0.00,-2.08,-0.43,-0.50,17.00,41.00,53.650925,9.698085,8.10,0.22,12,4.06-2,0,-91,-4,6,2
249442,-0.04,0.04,1.02,0.18,-0.06,-0.24,-1.50,18.00,40.00,53.650925,9.698085,8.10,0.15,12,4.06-2,-2,-98,-4,6,2
249542,-0.03,0.05,1.00,0.12,1.89,0.61,-0.50,16.00,42.00,53.650925,9.698085,8.10,0.37,12,4.09-2,-1,-95,-4,6,2
249642,0.01,0.05,0.99,-0.18,-0.18,0.18,-0.50,15.00,35.00,53.650925,9.698085,8.10,0.06,12,4.06-2,0,-90,-4,6,2
249742,-0.03,0.04,1.04,0.12,-4.03,-0.61,-0.50,19.00,43.00,53.650925,9.698085,8.10,0.22,12,4.04-2,-1,-94,-4,6,2
249842,-0.02,0.06,1.03,7.93,17.33,1.40,1.50,15.00,36.00,53.650925,9.698085,8.10,0.24,12,4.06-3,0,-86,-4,6,2
249942,-0.03,0.10,0.85,-1.46,-3.42,-0.37,0.50,18.00,40.00,53.650925,9.698085,8.10,0.11,12,4.07-6,-1,-91,-4,6,2
250042,-0.05,0.02,1.03,-10.19,-21.67,-1.65,0.50,16.00,43.00,53.650925,9.698085,8.10,0.11,12,4.09-1,-2,-94,-4,6,2
250151,-0.07,0.10,0.96,-0.43,-4.39,0.92,1.50,18.00,43.00,53.650925,9.698085,8.10,0.11,12,4.07-6,-4,-94,-4,6,2
250251,-0.00,0.05,1.00,-1.53,-1.77,0.00,-0.50,16.00,39.00,53.650925,9.698085,8.10,0.07,12,4.07-2,0,-91,-4,6,2
250351,-0.01,0.05,1.05,0.37,0.67,-0.12,2.50,18.00,41.00,53.650925,9.698085,8.10,0.02,12,4.10-2,0,-84,-4,6,2
250451,-0.05,0.05,0.99,0.43,6.16,1.16,-1.50,16.00,42.00,53.650925,9.698085,8.10,0.07,12,4.09-2,-3,-101,-4,6,2
250551,0.02,0.04,0.99,-0.12,-0.67,0.06,-0.50,17.00,40.00,53.650925,9.698085,8.10,0.22,12,4.08-2,1,-89,-4,6,2
250651,0.00,0.05,1.01,-0.31,-4.39,-1.40,-0.50,17.00,37.00,53.650925,9.698085,8.10,0.20,12,4.06-2,0,-91,-4,6,2
250751,-0.08,0.05,1.00,0.31,1.59,0.12,-0.50,18.00,38.00,53.650925,9.698085,8.10,0.07,12,4.08-2,-4,-100,-4,6,2
250851,0.01,0.04,1.10,0.43,8.91,1.59,-1.50,16.00,42.00,53.650925,9.698085,8.10,0.11,12,4.05-1,0,-93,-4,6,2
250951,0.02,0.04,0.94,1.16,-2.26,-0.49,0.50,17.00,42.00,53.650925,9.698085,8.10,0.13,12,4.06-2,1,-85,-4,6,2
251051,-0.05,0.03,1.08,-1.28,-6.90,-0.98,0.50,19.00,38.00,53.650925,9.698085,8.10,0.13,12,3.92-1,-2,-93,-4,6,2
251151,0.00,0.05,1.03,0.79,6.65,1.65,-0.50,17.00,39.00,53.650925,9.698085,8.10,0.13,12,4.07-2,0,-91,-4,6,2
251251,0.07,0.03,1.01,4.46,6.23,-0.43,0.50,17.00,44.00,53.650925,9.698085,8.10,0.07,12,4.03-1,4,-78,-4,6,2
251351,-0.18,0.11,0.87,0.06,0.31,0.24,-0.50,15.00,43.00,53.650925,9.698085,8.10,0.17,12,4.03-7,-11,-114,-4,6,2
251451,-0.02,0.05,0.97,-0.18,-1.34,0.92,0.50,14.00,41.00,53.650925,9.698085,8.10,0.20,12,4.18-2,-1,-91,-4,6,2
251551,0.04,0.05,0.97,-0.18,-1.89,-0.12,-0.50,17.00,42.00,53.650928,9.698085,8.00,0.07,12,4.08-2,2,-86,-4,6,2
251651,-0.02,0.04,1.03,0.18,-2.50,-0.85,-0.50,15.00,38.00,53.650925,9.698085,8.00,0.26,12,4.07-2,-1,-94,-4,6,2
251752,-0.02,0.05,1.05,0.31,3.54,0.61,-0.50,17.00,43.00,53.650925,9.698085,8.00,0.15,12,4.08-2,-1,-94,-4,6,2
251854,-0.01,0.04,1.02,0.24,6.23,1.04,-0.50,16.00,41.00,53.650925,9.698085,8.00,0.11,12,4.05-2,0,-92,-4,6,2
251954,0.02,0.04,0.99,-2.44,-4.70,-0.31,0.50,17.00,40.00,53.650925,9.698085,8.00,0.13,12,4.07-2,1,-85,-4,6,2
252056,0.02,0.05,0.99,0.18,0.12,-0.55,-0.50,18.00,41.00,53.650925,9.698085,8.00,0.13,12,4.07-2,1,-88,-4,6,2
252156,-0.05,0.05,0.98,0.37,-2.99,-0.43,0.50,18.00,41.00,53.650925,9.698085,8.00,0.13,12,4.07-2,-2,-94,-4,6,2
252256,-0.05,0.05,1.04,0.18,-0.98,0.12,0.50,16.00,41.00,53.650928,9.698085,8.00,0.19,12,3.93-2,-2,-95,-4,6,2
252356,-0.02,0.06,0.98,0.37,3.11,0.43,0.50,17.00,42.00,53.650925,9.698085,8.00,0.06,12,4.15-3,-1,-91,-5,6,2
252456,-0.02,0.05,0.96,0.00,1.46,0.12,0.50,17.00,37.00,53.650925,9.698085,8.00,0.07,12,3.94-2,-1,-91,-4,6,2
252572,-0.01,0.06,0.96,0.06,0.37,0.49,0.50,17.00,38.00,53.650925,9.698085,8.00,0.06,12,4.11-3,0,-89,-4,6,2
252673,-0.00,0.04,1.02,0.00,-4.82,-0.79,-0.50,18.00,41.00,53.650925,9.698085,8.00,0.06,12,4.07-2,0,-91,-4,6,2
252773,-0.03,0.05,1.04,0.06,-1.59,-0.79,-0.50,15.00,44.00,53.650925,9.698085,8.00,0.13,12,4.08-2,-1,-95,-4,6,2
252873,-0.07,0.04,0.98,0.18,4.33,1.28,1.50,18.00,43.00,53.650925,9.698085,8.00,0.13,12,4.08-2,-4,-95,-4,6,2
252973,0.05,0.05,1.00,0.06,2.38,0.24,0.50,17.00,40.00,53.650925,9.698085,8.00,0.17,12,4.10-2,2,-82,-4,6,2
253074,-0.04,0.05,0.99,-0.18,-2.99,-0.55,0.50,16.00,41.00,53.650925,9.698085,8.00,0.06,12,4.09-2,-2,-93,-4,6,2
253174,-0.03,0.05,1.03,0.00,-0.43,-0.37,-0.50,18.00,38.00,53.650925,9.698085,8.00,0.30,12,4.06-2,-1,-95,-4,6,2
253274,-0.00,0.05,0.99,0.12,-0.79,0.31,0.50,17.00,42.00,53.650925,9.698085,8.00,0.30,12,4.09-2,0,-88,-4,6,2
253374,-0.02,0.04,0.99,0.06,0.73,-0.24,1.50,16.00,41.00,53.650925,9.698085,8.00,0.30,12,4.11-2,-1,-87,-4,6,2
253483,-0.09,0.06,0.95,0.06,1.34,0.12,-1.50,18.00,37.00,53.650925,9.698085,8.00,0.30,12,4.03-3,-5,-103,-4,6,2
253583,0.00,0.04,1.00,0.06,-0.49,0.12,-1.50,15.00,41.00,53.650925,9.698085,8.00,0.30,12,4.10-2,0,-94,-4,6,2
253683,-0.01,0.05,1.00,0.06,-0.12,-0.18,0.50,19.00,39.00,53.650925,9.698085,8.00,0.30,12,4.10-2,0,-89,-4,6,2
253783,-0.05,0.05,0.98,0.31,2.01,0.37,0.50,20.00,40.00,53.650925,9.698085,8.00,0.30,12,4.10-2,-3,-94,-4,6,2
253883,-0.01,0.05,0.98,-0.12,-2.26,-0.06,1.50,16.00,42.00,53.650925,9.698085,8.00,0.30,12,4.09-2,0,-86,-4,6,2
253983,-0.02,0.04,1.02,0.00,-0.73,-0.12,0.50,17.00,42.00,53.650925,9.698085,8.00,0.13,12,4.15-2,0,-90,-4,6,2
254083,-0.05,0.05,0.99,0.06,0.24,0.12,-0.50,17.00,41.00,53.650925,9.698085,8.00,0.19,12,4.03-2,-2,-97,-4,6,2
254183,0.00,0.04,1.02,0.06,-0.79,0.12,0.50,16.00,36.00,53.650925,9.698085,8.00,0.19,12,3.94-2,0,-87,-4,6,2
254289,-0.02,0.05,1.00,0.12,0.18,-0.12,-0.50,17.00,45.00,53.650925,9.698085,8.00,0.19,12,4.06-2,-1,-94,-4,6,2
254389,-0.04,0.04,1.01,-0.06,-0.37,0.12,-0.50,17.00,40.00,53.650925,9.698085,8.00,0.19,12,4.09-2,-2,-96,-4,6,2
254489,-0.00,0.04,1.02,0.06,1.40,0.37,-1.50,12.00,42.00,53.650925,9.698085,8.00,0.19,12,4.04-2,0,-96,-4,6,2
254645,-0.03,0.05,0.99,0.06,-0.49,-0.18,0.50,17.00,42.00,53.650925,9.698085,8.00,0.19,12,4.06-2,-1,-92,-4,6,2
254745,-0.01,0.05,1.00,0.06,-1.16,-0.06,0.50,15.00,39.00,53.650925,9.698085,8.00,0.15,12,4.06-2,0,-89,-4,6,2
254845,-0.03,0.05,1.00,0.00,-0.55,-0.18,-0.50,16.00,44.00,53.650925,9.698086,8.00,0.15,12,4.05-2,-1,-96,-4,6,2
254945,-0.05,0.05,1.00,0.12,0.55,0.24,-0.50,19.00,43.00,53.650925,9.698085,8.00,0.24,12,4.02-2,-2,-97,-4,6,2
255045,0.01,0.04,1.01,0.12,0.00,0.12,0.50,18.00,38.00,53.650925,9.698085,8.00,0.24,12,4.07-2,0,-87,-5,6,2
255145,-0.02,0.05,1.00,0.18,-0.24,-0.31,-1.50,18.00,42.00,53.650925,9.698085,8.00,0.24,12,4.06-2,-1,-96,-5,6,2
255245,-0.04,0.05,1.00,0.12,0.37,0.12,0.50,16.00,44.00,53.650925,9.698085,8.00,0.24,12,4.09-2,-2,-94,-5,6,2
255345,-0.01,0.05,1.00,0.06,0.24,0.12,0.50,18.00,40.00,53.650925,9.698086,8.00,0.11,12,4.10-2,0,-90,-4,6,2
255445,-0.02,0.05,1.00,-0.06,-0.92,-0.12,-1.50,17.00,38.00,53.650925,9.698086,8.00,0.02,12,4.06-2,-1,-97,-4,6,2
255545,-0.02,0.05,1.01,0.18,-0.18,-0.06,-0.50,17.00,41.00,53.650925,9.698086,8.00,0.15,12,4.06-2,-1,-94,-4,6,2
255645,-0.04,0.05,0.99,0.18,0.61,0.18,0.50,18.00,43.00,53.650925,9.698086,8.00,0.09,12,4.14-2,-2,-93,-4,6,2
255745,-0.02,0.05,1.00,0.06,1.04,0.18,-0.50,15.00,41.00,53.650925,9.698086,8.00,0.09,12,4.05-2,-1,-94,-4,6,2
255845,-0.02,0.05,0.99,0.06,-0.43,-0.06,-0.50,17.00,42.00,53.650925,9.698086,8.00,0.04,12,4.06-2,0,-93,-4,6,2
255948,0.00,0.04,1.00,0.24,-1.71,-0.31,1.50,17.00,38.00,53.650925,9.698086,8.00,0.09,12,4.09-2,0,-85,-4,6,2
256048,-0.05,0.05,1.00,0.00,-2.20,-0.49,0.50,18.00,40.00,53.650925,9.698086,8.00,0.09,12,4.07-2,-3,-94,-4,6,2
256148,-0.05,0.05,1.00,0.18,3.11,0.79,-0.50,17.00,38.00,53.650925,9.698086,8.00,0.09,12,4.14-2,-3,-97,-5,6,2
256248,0.04,0.04,1.02,0.18,1.89,0.61,0.50,15.00,43.00,53.650925,9.698086,8.00,0.09,12,4.06-2,2,-82,-4,6,2
256348,-0.01,0.05,0.98,0.18,-1.89,-0.73,-1.50,17.00,41.00,53.650925,9.698086,8.00,0.13,12,4.23-2,0,-95,-4,6,2
256448,-0.08,0.05,0.99,0.12,-1.83,-0.37,0.50,18.00,41.00,53.650925,9.698086,8.00,0.09,12,4.08-2,-4,-98,-4,6,2
256548,-0.02,0.05,1.01,0.12,2.38,0.79,1.50,17.00,40.00,53.650925,9.698086,8.00,0.19,12,4.08-2,0,-87,-4,6,2
256648,0.01,0.04,1.00,0.12,0.79,0.00,-0.50,18.00,43.00,53.650925,9.698086,8.00,0.15,12,4.06-2,0,-90,-4,6,2
256748,-0.02,0.05,1.00,0.12,-1.40,-0.31,0.50,17.00,36.00,53.650925,9.698086,8.00,0.13,12,4.11-2,0,-90,-4,6,2
256864,-0.04,0.05,0.99,0.12,0.61,0.06,-0.50,16.00,32.00,53.650925,9.698086,8.00,0.06,12,4.01-2,-2,-96,-4,6,2
256964,-0.04,0.05,1.00,0.12,2.14,0.43,1.50,16.00,44.00,53.650925,9.698086,8.00,0.20,12,4.05-2,-2,-90,-4,6,2
257064,-0.00,0.05,1.00,0.12,0.12,0.24,-0.50,17.00,39.00,53.650925,9.698086,8.00,0.61,12,4.07-2,0,-91,-4,6,2
257164,-0.00,0.05,1.01,0.12,-1.71,-0.37,-1.50,17.00,40.00,53.650925,9.698086,8.00,0.28,12,4.11-2,0,-95,-4,6,2
257264,-0.04,0.05,1.00,0.18,-0.79,-0.24,-0.50,16.00,38.00,53.650925,9.698086,8.00,0.06,12,4.06-2,-2,-96,-4,6,2
257364,-0.03,0.05,1.01,0.18,1.40,0.31,-1.50,17.00,39.00,53.650925,9.698086,8.00,0.09,12,4.10-2,-1,-98,-4,6,2
257464,-0.01,0.05,0.99,0.06,1.22,0.18,0.50,17.00,40.00,53.650925,9.698086,8.00,0.09,12,4.10-2,0,-89,-4,6,2
257564,-0.03,0.05,0.99,0.18,0.06,0.00,-1.50,16.00,40.00,53.650925,9.698086,8.00,0.09,12,4.09-2,-1,-98,-4,6,2
257664,-0.03,0.04,1.00,0.00,-0.79,-0.12,-0.50,16.00,41.00,53.650925,9.698086,8.00,0.09,12,4.17-2,-1,-95,-4,6,2
257764,-0.02,0.05,1.01,0.12,0.73,0.18,-0.50,15.00,44.00,53.650925,9.698086,8.00,0.09,12,4.10-2,-1,-94,-5,6,2
257864,-0.01,0.04,1.00,0.12,0.55,0.12,1.50,18.00,41.00,53.650925,9.698086,8.00,0.09,12,4.09-2,0,-87,-4,6,2
257964,-0.02,0.05,0.99,0.00,-1.40,-0.18,-0.50,16.00,38.00,53.650925,9.698086,8.00,0.04,12,4.03-2,-1,-94,-4,6,2
258064,-0.03,0.05,1.01,0.12,0.12,-0.06,0.50,15.00,40.00,53.650925,9.698086,8.00,0.13,12,4.07-2,-1,-92,-4,6,2
258164,-0.02,0.05,0.99,0.18,0.43,0.18,0.50,19.00,41.00,53.650925,9.698086,8.00,0.19,12,4.08-2,-1,-91,-4,6,2
258264,-0.02,0.04,1.00,0.18,0.18,0.06,-1.50,15.00,43.00,53.650925,9.698086,8.00,0.17,12,4.09-2,0,-97,-4,6,2
258364,-0.03,0.05,1.00,0.06,-0.37,-0.18,0.50,18.00,38.00,53.650925,9.698086,8.00,0.17,12,4.00-2,-1,-91,-4,6,2
258464,-0.03,0.05,1.00,0.12,0.67,0.12,-1.50,19.00,44.00,53.650925,9.698086,8.00,0.17,12,4.10-2,-1,-97,-4,6,2
258564,0.00,0.04,1.01,0.12,1.22,0.24,-1.50,17.00,35.00,53.650925,9.698086,8.00,0.17,12,4.00-2,0,-94,-4,6,2
258665,-0.02,0.05,1.00,0.18,0.12,-0.18,-0.50,17.00,38.00,53.650925,9.698086,8.00,0.17,12,4.19-2,0,-93,-4,6,2
258765,-0.03,0.04,1.00,0.06,-0.92,-0.24,0.50,16.00,38.00,53.650925,9.698086,8.00,0.17,12,4.09-2,-1,-92,-4,6,2
258865,-0.04,0.05,1.00,0.18,0.73,0.18,-0.50,17.00,36.00,53.650925,9.698086,8.00,0.17,12,4.09-2,-2,-95,-4,6,2
258965,-0.02,0.04,0.99,0.00,0.73,0.24,-0.50,18.00,40.00,53.650925,9.698086,8.00,0.09,12,4.10-2,-1,-93,-4,6,2
259065,-0.02,0.05,1.00,0.06,-0.85,-0.06,-0.50,18.00,36.00,53.650925,9.698086,8.00,0.06,12,3.95-2,0,-93,-4,6,2
259165,-0.02,0.04,1.02,0.31,0.37,0.00,-0.50,17.00,38.00,53.650925,9.698086,8.00,0.09,12,4.10-2,-1,-94,-4,6,2
259265,-0.03,0.05,0.99,0.24,0.61,0.24,1.50,16.00,36.00,53.650925,9.698086,8.00,0.09,12,4.00-2,-1,-88,-4,6,2
259365,-0.01,0.05,0.99,0.00,-0.61,-0.12,0.50,17.00,36.00,53.650925,9.698086,8.00,0.09,12,4.03-2,0,-89,-4,6,2
259465,-0.03,0.04,1.02,0.18,1.28,0.00,1.50,16.00,43.00,53.650925,9.698086,8.00,0.09,12,4.05-2,-1,-88,-4,6,2
259565,-0.03,0.05,0.98,0.18,1.10,0.31,0.50,15.00,37.00,53.650925,9.698086,8.00,0.09,12,4.05-2,-1,-92,-4,6,2
259665,-0.03,0.05,0.98,0.06,0.00,0.18,-0.50,18.00,39.00,53.650925,9.698086,8.00,0.09,12,4.07-2,-1,-94,-4,6,2
259765,-0.02,0.04,1.01,-0.06,-1.65,-0.06,1.50,17.00,38.00,53.650925,9.698086,8.00,0.07,12,4.06-2,0,-87,-4,6,2
259865,0.00,0.04,1.02,0.12,-0.18,-0.18,-0.50,19.00,39.00,53.650925,9.698086,8.00,0.07,12,4.08-2,0,-91,-4,6,2
259965,-0.04,0.05,1.00,0.24,-0.61,-0.31,1.50,19.00,43.00,53.650925,9.698086,8.00,0.13,12,4.10-2,-2,-90,-4,6,2
260065,-0.02,0.04,1.01,0.24,1.46,0.24,-0.50,18.00,40.00,53.650925,9.698086,8.00,0.13,12,4.09-2,-1,-94,-4,6,2
260165,-0.02,0.05,0.98,0.18,0.49,0.18,0.50,17.00,40.00,53.650925,9.698086,8.00,0.11,12,4.04-2,-1,-90,-4,6,2
260265,-0.02,0.04,1.00,0.18,-0.55,-0.18,-0.50,17.00,40.00,53.650925,9.698086,8.00,0.11,12,4.10-2,0,-93,-4,6,2
260365,-0.02,0.05,1.00,0.12,0.37,0.00,-1.50,18.00,41.00,53.650925,9.698086,8.00,0.11,12,4.09-2,-1,-97,-4,6,2
260465,-0.02,0.04,0.99,0.12,0.37,0.18,-0.50,17.00,44.00,53.650925,9.698086,8.00,0.11,12,4.09-2,-1,-94,-4,6,2
260565,-0.03,0.05,1.01,0.06,-0.06,-0.06,-0.50,18.00,41.00,53.650925,9.698086,8.00,0.11,12,4.10-2,-1,-94,-4,6,2
260665,-0.02,0.05,0.99,0.12,0.37,0.00,-0.50,17.00,41.00,53.650925,9.698086,8.00,0.11,12,4.07-2,-1,-93,-4,6,2
260765,-0.03,0.05,0.99,0.06,-0.98,-0.18,2.50,18.00,41.00,53.650925,9.698086,8.00,0.11,12,4.10-2,-1,-86,-4,6,2
260865,-0.02,0.04,1.01,0.12,0.61,0.12,0.50,17.00,40.00,53.650925,9.698086,7.90,0.11,12,4.17-2,-1,-91,-4,6,2
260965,-0.01,0.05,1.00,0.06,-0.06,-0.06,0.50,18.00,40.00,53.650925,9.698086,7.90,0.06,12,4.07-2,0,-90,-4,6,2
261065,-0.03,0.05,1.01,0.12,-0.61,-0.24,2.50,18.00,40.00,53.650925,9.698086,7.90,0.15,12,4.10-2,-1,-86,-4,6,2
261165,-0.01,0.04,1.01,0.06,-0.12,0.00,0.50,18.00,42.00,53.650925,9.698086,7.90,0.15,12,4.10-2,0,-90,-4,6,2
261265,-0.03,0.05,1.00,0.12,1.10,0.00,1.50,18.00,43.00,53.650925,9.698087,8.00,0.15,12,4.08-2,-1,-89,-4,6,2
261365,-0.02,0.04,1.00,-0.06,-0.49,-0.12,0.50,17.00,40.00,53.650925,9.698087,7.90,0.15,12,4.10-2,-1,-91,-4,6,2
261465,0.35,-0.04,1.52,73.73,113.28,2.69,-0.50,17.00,38.00,53.650925,9.698087,7.90,0.15,12,4.061,12,-64,-4,6,2
261565,-0.07,0.05,0.91,6.29,-4.64,-1.28,-0.50,11.00,44.00,53.650925,9.698086,7.90,0.19,12,4.07-3,-4,-104,-4,6,2
261665,0.03,0.01,1.00,7.87,5.37,0.00,-2.50,12.00,41.00,53.650925,9.698087,7.90,0.35,12,4.070,1,-95,-4,6,2
261765,-0.10,-0.06,1.04,-56.34,-84.90,-21.55,4.50,18.00,41.00,53.650925,9.698087,7.90,0.15,12,4.083,-5,-86,-4,6,2
261865,0.01,0.08,0.97,15.01,16.78,-21.12,2.50,17.00,39.00,53.650925,9.698087,7.90,0.13,12,4.11-5,0,-82,-4,6,2
261965,-0.12,0.08,0.95,8.12,8.00,13.49,2.50,17.00,39.00,53.650925,9.698086,7.90,0.44,12,4.11-4,-7,-96,-4,6,2
262065,-0.00,0.11,1.02,-4.70,-15.81,32.29,1.50,18.00,40.00,53.650925,9.698086,7.90,0.19,12,4.12-6,0,-86,-4,6,2
262165,-0.12,0.13,1.07,-49.87,18.98,-1.22,5.50,20.00,42.00,53.650925,9.698087,7.90,0.19,12,4.15-6,-6,-87,-4,6,2
262265,0.04,0.21,1.00,-78.98,-18.80,-11.96,10.50,18.00,40.00,53.650925,9.698087,7.90,0.19,12,4.10-11,2,-65,-4,6,2
262365,-0.06,0.24,0.97,-41.50,-110.17,-12.08,14.50,23.00,36.00,53.650925,9.698086,7.90,0.07,12,4.03-13,-3,-68,-4,6,2
262465,-0.29,0.49,0.94,-71.59,-103.70,-13.79,20.50,30.00,30.00,53.650925,9.698086,7.90,0.07,12,4.09-27,-15,-74,-4,6,2
262565,-0.37,0.68,1.10,-109.74,6.29,-49.07,28.50,30.00,19.00,53.650925,9.698086,7.90,0.52,12,4.07-31,-16,-60,-4,6,2
262665,-0.33,0.68,0.55,-83.62,-12.63,-54.44,32.50,28.00,16.00,53.650925,9.698086,7.90,0.33,12,4.13-51,-20,-57,-4,6,2
262772,-0.33,0.72,0.45,-81.42,-53.28,31.74,32.50,29.00,11.00,53.650925,9.698086,8.00,0.33,12,4.06-57,-21,-52,-4,6,2
262872,-0.32,0.85,0.25,-25.88,13.79,35.89,33.50,30.00,5.00,53.650925,9.698086,8.00,0.33,12,4.06-73,-20,-39,-4,6,2
262972,-0.34,0.75,0.37,-16.85,10.80,18.68,31.50,28.00,-1.00,53.650925,9.698086,8.00,0.24,12,4.04-63,-21,-36,-4,6,2
263072,-0.38,0.81,0.43,4.94,1.22,2.20,31.50,27.00,-5.00,53.650925,9.698086,8.00,0.24,12,4.14-61,-22,-32,-4,6,2
263172,-0.37,0.81,0.51,38.39,17.21,13.73,31.50,29.00,3.00,53.650925,9.698086,8.00,0.24,12,4.09-57,-20,-44,-4,6,2
263272,-0.36,0.78,0.56,17.40,4.94,-6.41,33.50,28.00,-4.00,53.650925,9.698086,8.00,0.24,12,4.01-54,-20,-35,-4,6,2
263372,-0.36,0.77,0.53,3.30,-8.36,-5.07,31.50,25.00,-2.00,53.650925,9.698086,8.00,0.24,12,4.05-55,-21,-36,-4,6,2
263495,-0.36,0.81,0.55,-7.39,0.61,-3.30,32.50,26.00,-4.00,53.650925,9.698086,8.00,0.24,12,4.06-55,-20,-33,-4,6,2
263595,-0.37,0.83,0.54,-0.79,-2.81,-8.24,34.50,27.00,-5.00,53.650925,9.698086,8.00,0.24,12,4.10-57,-20,-31,-4,6,2
263695,-0.34,0.81,0.57,-9.70,-13.79,-4.76,32.50,24.00,-8.00,53.650925,9.698086,8.00,0.24,12,4.10-54,-18,-25,-4,6,2
263795,-0.33,0.82,0.52,-2.38,-0.85,-2.75,33.50,22.00,-9.00,53.650925,9.698086,8.00,0.24,12,4.12-57,-18,-21,-4,6,2
263895,-0.37,0.83,0.54,-4.09,5.80,-0.67,32.50,21.00,-12.00,53.650925,9.698086,8.00,0.24,12,4.10-56,-20,-18,-4,6,2
263995,-0.30,0.84,0.50,-9.03,-16.97,13.24,31.50,24.00,-12.00,53.650925,9.698086,8.00,0.24,12,4.06-59,-16,-16,-4,6,2
264095,-0.43,0.93,0.48,11.90,-65.98,-32.78,32.50,24.00,-17.00,53.650925,9.698086,8.00,0.24,12,4.07-62,-22,-12,-4,6,2
264195,-0.58,0.87,0.52,3.05,-35.52,-12.82,35.50,25.00,-15.00,53.650925,9.698086,8.00,0.24,12,4.08-59,-29,-23,-4,6,2
264295,-0.39,0.83,0.44,31.74,9.52,15.14,34.50,25.00,-17.00,53.650925,9.698086,8.00,0.24,12,3.96-61,-22,-14,-4,6,2
264416,-0.48,0.79,0.44,-35.46,-11.29,37.48,34.50,26.00,-15.00,53.650925,9.698086,8.00,0.24,12,3.93-60,-27,-22,-4,6,2
264516,-0.50,0.88,0.51,6.84,24.78,-28.02,29.50,30.00,-17.00,53.650925,9.698086,8.00,0.24,12,4.07-59,-26,-21,-4,6,2
264623,-0.49,0.80,0.46,-18.55,-19.35,24.60,29.50,24.00,-14.00,53.650925,9.698086,8.00,0.24,12,4.02-59,-27,-22,-4,6,2
264723,-0.55,0.84,0.46,2.93,10.13,35.83,29.50,27.00,-15.00,53.650925,9.698086,8.00,0.24,12,4.07-61,-29,-23,-4,6,2
264835,-0.57,0.80,0.45,-25.02,-12.45,17.52,29.50,27.00,-14.00,53.650925,9.698086,8.00,0.24,12,4.07-60,-32,-26,-4,6,2
264936,-0.53,0.73,0.38,7.39,15.44,13.06,25.50,28.00,-14.00,53.650925,9.698086,8.00,0.24,12,4.07-62,-32,-27,-4,6,2
265036,-0.51,0.75,0.38,-16.72,-3.23,-6.77,25.50,29.00,-22.00,53.650925,9.698086,8.00,0.24,12,4.05-62,-31,-13,-4,6,2
265136,-0.47,0.73,0.37,0.98,-5.98,5.25,25.50,28.00,-19.00,53.650925,9.698086,8.00,0.24,12,4.10-63,-29,-16,-4,6,2
265236,-0.53,0.73,0.36,1.10,-3.11,-0.12,25.50,26.00,-21.00,53.650925,9.698086,8.00,0.24,12,4.10-64,-32,-13,-4,6,2
265336,-0.69,0.81,0.38,0.18,1.53,6.65,25.50,26.00,-23.00,53.650925,9.698086,8.00,0.24,12,4.07-64,-37,-14,-4,6,2
265436,-0.49,0.72,0.37,-3.54,-0.06,-2.26,24.50,27.00,-16.00,53.650928,9.698086,8.00,0.22,12,4.07-62,-31,-21,-4,6,2
265538,-0.50,0.75,0.38,5.74,1.40,4.03,25.50,22.00,-23.00,53.650928,9.698086,8.00,0.22,12,4.13-63,-30,-6,-4,6,2
265638,-0.70,0.80,0.36,-0.85,-7.26,-0.31,25.50,26.00,-20.00,53.650928,9.698086,8.00,0.22,12,4.09-65,-38,-18,-4,6,2
265748,-0.62,0.77,0.33,3.23,-2.99,-1.10,23.50,19.00,-19.00,53.650928,9.698086,8.00,0.22,12,4.01-66,-36,-11,-4,6,2
265848,-0.47,0.79,0.41,3.11,-8.06,-22.28,24.50,18.00,-20.00,53.650928,9.698086,8.00,0.07,12,4.04-62,-27,-5,-4,6,2
265948,-0.48,0.78,0.29,-7.26,7.51,-28.69,27.50,18.00,-16.00,53.650928,9.698086,8.00,0.06,12,4.06-69,-30,-11,-4,6,2
266048,-0.72,0.91,0.37,11.29,9.09,10.50,24.50,16.00,-18.00,53.650928,9.698086,8.00,0.06,12,4.09-67,-36,-11,-4,6,2
266148,-0.54,0.75,0.37,-6.96,-2.20,-0.31,27.50,17.00,-15.00,53.650928,9.698086,8.00,0.06,12,4.09-63,-32,-16,-4,6,2
266248,-0.57,0.84,0.38,5.25,3.78,-2.44,27.50,18.00,-24.00,53.650928,9.698086,8.00,0.13,12,4.16-65,-31,-2,-4,6,2
266348,-0.51,0.78,0.42,10.25,8.48,-11.54,24.50,15.00,-18.00,53.650928,9.698087,8.00,0.09,12,4.06-61,-29,-7,-4,6,2
266448,-0.53,0.82,0.45,17.15,6.53,-3.54,23.50,15.00,-19.00,53.650928,9.698087,8.00,0.13,12,4.08-61,-29,-5,-4,6,2
266548,-0.57,0.79,0.42,14.16,-2.32,-1.16,30.50,15.00,-17.00,53.650928,9.698087,8.00,0.07,12,4.23-61,-32,-14,-4,6,2
266648,-0.55,0.82,0.45,7.87,-6.47,-2.44,28.50,16.00,-17.00,53.650928,9.698087,8.00,0.11,12,4.10-61,-30,-12,-4,6,2
266748,-0.48,0.74,0.43,-6.29,-10.50,-3.17,28.50,17.00,-12.00,53.650928,9.698087,8.00,0.15,12,4.09-59,-29,-20,-4,6,2
266918,-0.56,0.83,0.44,3.11,4.82,-3.17,27.50,18.00,-17.00,53.650928,9.698087,8.00,0.15,12,4.07-61,-30,-14,-4,6,2
267018,-0.52,0.79,0.46,3.11,-4.76,4.76,24.50,16.00,-15.00,53.650928,9.698087,8.00,0.15,12,4.05-59,-29,-14,-4,6,2
267118,-0.47,0.75,0.44,2.50,2.08,-6.96,27.50,17.00,-18.00,53.650928,9.698087,8.00,0.15,12,4.07-59,-28,-10,-4,6,2
267218,-0.48,0.75,0.44,11.84,4.58,-0.79,24.50,12.00,-18.00,53.650928,9.698087,8.00,0.15,12,4.07-59,-28,-5,-4,6,2
267318,-0.48,0.76,0.39,0.61,5.13,4.46,28.50,10.00,-16.00,53.650928,9.698087,8.00,0.15,12,4.09-62,-29,-7,-4,6,2
267419,-0.49,0.76,0.41,-14.04,6.47,-11.47,28.50,6.00,-11.00,53.650928,9.698087,8.00,0.15,12,4.11-61,-29,-12,-4,6,2
267519,-0.56,0.83,0.44,15.62,9.58,4.58,26.50,4.00,-10.00,53.650928,9.698087,8.00,0.15,12,4.06-62,-30,-12,-4,6,2
267619,-0.57,0.76,0.22,7.39,-7.39,16.85,22.50,8.00,-11.00,53.650928,9.698087,8.00,0.15,12,4.06-73,-35,-14,-4,6,2
267719,-0.36,0.73,0.64,-29.97,44.25,19.41,25.50,15.00,-7.00,53.650928,9.698087,8.00,0.15,12,4.02-48,-20,-23,-4,6,2
267819,-0.47,0.75,0.59,47.24,52.86,26.67,28.50,36.00,6.00,53.650928,9.698087,8.00,0.15,12,4.10-51,-25,-57,-4,6,2
267942,-0.45,0.54,0.73,100.83,74.46,76.72,19.50,32.00,23.00,53.650928,9.698087,8.00,0.15,12,4.11-36,-26,-80,-4,6,2
268042,-0.49,0.40,0.78,59.45,59.57,34.48,10.50,32.00,32.00,53.650928,9.698087,8.00,0.15,12,4.09-26,-29,-98,-4,6,2
268142,-0.39,0.32,0.87,53.77,83.25,56.34,6.50,26.00,28.00,53.650928,9.698087,8.00,0.15,12,4.09-20,-22,-98,-4,6,2
268242,-0.24,0.21,0.93,50.05,98.02,117.07,-0.50,19.00,36.00,53.650928,9.698087,8.00,0.15,12,4.07-13,-14,-109,-4,6,2
268342,-0.03,0.11,1.06,73.91,94.36,90.70,-11.50,16.00,41.00,53.650928,9.698087,8.00,0.56,12,4.08-6,-1,-122,-4,6,2
268442,0.18,-0.02,0.93,98.94,81.79,74.40,-18.50,7.00,38.00,53.650925,9.698087,8.00,0.94,12,4.091,10,-150,-4,6,2
268543,0.19,-0.05,0.86,25.39,24.05,88.75,-26.50,-1.00,39.00,53.650925,9.698087,8.00,0.43,12,4.143,12,168,-4,6,2
268643,0.26,-0.10,0.94,-26.49,-18.01,72.57,-25.50,-5.00,40.00,53.650925,9.698087,8.00,0.54,12,4.095,15,144,-4,6,2
268743,0.45,-0.18,1.08,13.37,10.62,-11.35,-22.50,-8.00,38.00,53.650925,9.698087,8.00,0.50,12,4.109,22,112,-4,6,2
268843,0.41,-0.26,1.00,32.10,6.65,-41.26,-25.50,-5.00,36.00,53.650925,9.698087,8.10,0.35,12,4.0314,21,123,-3,6,2
268951,0.30,-0.26,0.81,22.95,6.23,-58.23,-27.50,-3.00,36.00,53.650925,9.698087,8.10,0.74,12,4.0818,19,130,-4,6,2
269052,0.20,-0.26,0.94,-30.64,-5.37,-96.86,-26.50,-1.00,35.00,53.650925,9.698087,8.10,0.74,12,4.0515,11,148,-4,6,2
269152,0.08,-0.14,0.99,-35.58,-82.70,-90.70,-23.50,10.00,39.00,53.650925,9.698087,8.10,0.74,12,4.097,4,-168,-4,6,2
269252,-0.22,-0.06,1.12,-24.41,-64.33,-99.98,-18.50,19.00,33.00,53.650925,9.698085,8.10,1.59,12,4.102,-11,-144,-4,6,2
269352,0.01,-0.16,0.88,5.92,-52.80,-47.30,-14.50,24.00,28.00,53.650925,9.698085,8.10,1.31,12,3.9810,0,-127,-4,6,2
269452,-0.31,-0.05,0.96,-7.02,-14.16,-28.32,-16.50,27.00,28.00,53.650925,9.698085,8.10,0.59,12,4.033,-18,-133,-4,6,2
269552,-0.28,-0.02,0.83,6.29,-21.79,-28.99,-11.50,33.00,30.00,53.650925,9.698084,8.10,0.39,12,4.101,-18,-122,-4,6,2
269652,-0.33,-0.05,1.06,-43.21,20.20,11.60,-12.50,30.00,27.00,53.650925,9.698084,8.10,0.72,12,4.042,-17,-124,-3,6,2
269752,-0.25,0.04,0.89,-18.62,5.98,20.63,-11.50,29.00,29.00,53.650925,9.698084,8.10,0.11,12,4.01-2,-15,-122,-4,6,2
269853,-0.25,0.01,0.98,42.11,-22.22,3.97,-12.50,28.00,26.00,53.650925,9.698084,8.10,0.30,12,4.050,-14,-123,-4,6,2
269953,-0.34,-0.11,0.88,1.89,0.79,7.02,-13.50,32.00,23.00,53.650925,9.698084,8.10,0.22,12,3.987,-20,-125,-4,6,2
270053,-0.27,-0.07,1.01,6.41,-11.11,-3.05,-13.50,30.00,27.00,53.650925,9.698084,8.10,0.22,12,4.074,-14,-125,-4,6,2
270153,-0.29,-0.09,0.93,-0.43,0.73,-19.29,-12.50,31.00,25.00,53.650925,9.698084,8.10,0.22,12,4.015,-17,-123,-4,6,2
270255,-0.30,-0.01,0.92,5.13,0.43,-5.86,-11.50,31.00,22.00,53.650925,9.698084,8.10,0.31,12,3.970,-17,-119,-4,6,2
270355,-0.32,-0.07,0.92,12.63,-12.76,-9.03,-12.50,33.00,23.00,53.650925,9.698084,8.10,0.41,12,4.054,-19,-121,-4,6,2
270457,-0.35,-0.11,0.85,-0.55,1.16,-5.86,-11.50,34.00,27.00,53.650925,9.698084,8.10,0.33,12,4.057,-22,-123,-4,6,2
270557,-0.32,-0.04,0.95,-8.91,19.10,-7.45,-10.50,33.00,26.00,53.650925,9.698084,8.10,0.07,12,4.052,-18,-119,-4,6,2
270657,-0.30,-0.03,0.94,5.74,-2.44,-2.38,-9.50,34.00,30.00,53.650925,9.698083,8.10,0.26,12,4.032,-17,-118,-4,6,2
270757,-0.30,-0.10,0.90,1.83,-0.92,3.30,-11.50,32.00,23.00,53.650925,9.698083,8.10,0.06,12,4.066,-18,-121,-4,6,2
270857,-0.32,-0.08,0.93,-3.72,8.24,-9.83,-10.50,33.00,21.00,53.650925,9.698083,8.10,0.13,12,4.065,-19,-118,-4,6,2
270957,-0.29,-0.02,0.94,2.69,3.85,-5.55,-9.50,31.00,23.00,53.650925,9.698083,8.10,0.07,12,3.991,-16,-117,-4,6,2
271057,-0.29,-0.01,0.90,-3.97,-0.73,-4.52,-10.50,35.00,23.00,53.650925,9.698083,8.10,0.24,12,4.040,-17,-116,-4,6,2
271157,-0.30,-0.07,0.92,-6.35,5.80,5.37,-11.50,30.00,24.00,53.650925,9.698083,8.10,0.07,12,3.964,-17,-122,-4,6,2
271271,-0.22,0.05,1.00,-14.22,22.83,18.19,-9.50,30.00,28.00,53.650925,9.698083,8.10,0.07,12,4.06-3,-12,-116,-4,6,2
271371,-0.25,-0.00,0.97,-0.18,5.98,31.43,-10.50,28.00,26.00,53.650925,9.698083,8.10,0.07,12,4.000,-14,-120,-4,6,2
271472,-0.18,-0.05,0.94,-16.78,9.16,32.65,-12.50,27.00,27.00,53.650925,9.698083,8.10,0.07,12,4.063,-10,-124,-4,6,2
271572,-0.20,-0.04,0.95,-3.85,-1.04,10.93,-13.50,27.00,25.00,53.650925,9.698084,8.10,0.07,12,4.082,-11,-125,-4,6,2
271672,-0.23,-0.02,0.96,-8.30,5.74,10.25,-12.50,29.00,28.00,53.650925,9.698084,8.10,0.07,12,4.061,-13,-123,-4,6,2
271772,-0.18,-0.07,0.95,-23.93,29.66,4.52,-12.50,27.00,30.00,53.650925,9.698084,8.10,0.07,12,3.944,-10,-125,-4,6,2
271872,-0.16,0.02,1.00,17.15,-16.05,16.36,-8.50,25.00,33.00,53.650925,9.698084,8.10,0.07,12,4.01-1,-8,-117,-4,6,2
271972,-0.20,-0.03,0.89,-2.08,-1.89,-2.56,-13.50,26.00,30.00,53.650925,9.698084,8.10,0.11,12,4.061,-12,-128,-4,6,2
272072,-0.16,0.07,0.98,-6.77,3.85,9.89,-11.50,25.00,32.00,53.650925,9.698084,8.10,0.11,12,4.05-3,-9,-121,-4,6,2
272172,-0.14,-0.01,1.03,-11.66,7.32,12.76,-12.50,29.00,32.00,53.650925,9.698084,8.10,0.11,12,4.090,-7,-120,-4,6,2
272275,-0.17,-0.02,0.95,-8.24,11.47,8.24,-10.50,26.00,32.00,53.650925,9.698084,8.10,0.11,12,4.100,-10,-122,-4,6,2
272375,-0.15,0.04,1.01,4.76,2.01,1.59,-11.50,25.00,32.00,53.650925,9.698084,8.10,0.11,12,4.08-2,-8,-121,-4,6,2
272475,-0.13,0.02,0.98,-3.48,4.27,1.40,-11.50,25.00,34.00,53.650925,9.698084,8.10,0.11,12,4.10-1,-7,-121,-3,6,2
272575,-0.13,0.04,1.00,2.14,3.72,9.34,-11.50,22.00,32.00,53.650925,9.698084,8.10,0.11,12,4.09-2,-7,-123,-4,6,2
272675,-0.12,0.01,1.02,-3.36,12.82,5.07,-12.50,25.00,35.00,53.650925,9.698084,8.10,0.11,12,4.050,-6,-123,-3,6,2
272775,-0.12,0.02,0.97,1.65,4.39,7.20,-12.50,25.00,36.00,53.650925,9.698084,8.10,0.11,12,4.05-1,-6,-123,-4,6,2
272875,-0.11,0.02,0.99,-8.79,2.81,5.00,-14.50,23.00,34.00,53.650925,9.698084,8.10,0.11,12,4.23-1,-6,-127,-4,6,2
272975,-0.09,0.08,0.93,-21.00,18.19,4.46,-12.50,25.00,33.00,53.650925,9.698084,8.00,0.07,12,4.09-4,-5,-119,-4,6,2
273075,-0.08,0.07,0.97,8.48,-0.43,5.43,-9.50,19.00,35.00,53.650925,9.698084,8.00,0.24,12,4.07-4,-4,-119,-4,6,2
273175,-0.10,0.02,0.99,-3.11,3.78,-1.16,-12.50,22.00,32.00,53.650925,9.698084,8.00,0.24,12,4.09-1,-5,-124,-4,6,2
273275,-0.04,0.10,1.03,-5.00,3.78,1.34,-11.50,22.00,36.00,53.650925,9.698084,8.00,0.24,12,4.05-5,-2,-117,-4,6,2
273375,-0.11,0.02,1.06,27.71,-31.98,6.29,-9.50,24.00,36.00,53.650925,9.698084,8.00,0.24,12,4.06-1,-5,-117,-4,6,2
273554,-0.11,-0.00,1.04,0.00,5.37,2.26,-12.50,23.00,32.00,53.650925,9.698084,8.00,0.24,12,3.680,-6,-124,-4,6,2
273654,-0.12,-0.06,0.95,6.35,-8.36,-23.19,-11.50,22.00,35.00,53.650925,9.698084,8.00,0.11,12,3.993,-7,-128,-4,6,2
273754,-0.13,0.01,0.97,8.67,-8.30,-74.77,-10.50,20.00,37.00,53.650925,9.698084,8.00,0.07,12,4.050,-7,-126,-4,6,2
273854,-0.11,0.19,0.95,38.94,-19.59,-59.81,-9.50,26.00,33.00,53.650925,9.698083,8.00,0.33,12,4.10-11,-6,-112,-4,6,2
273954,-0.10,0.10,1.02,-18.86,16.91,29.24,-11.50,25.00,36.00,53.650925,9.698083,8.00,0.69,12,4.10-5,-5,-118,-3,6,2
274054,-0.11,-0.01,1.00,5.62,-6.71,10.62,-11.50,23.00,34.00,53.650925,9.698083,8.00,0.69,12,4.100,-6,-124,-4,6,2
274156,-0.11,-0.01,0.95,0.79,-1.95,7.08,-10.50,25.00,33.00,53.650925,9.698083,8.00,0.69,12,3.940,-6,-120,-4,6,2
274256,-0.13,0.03,1.00,-8.24,7.08,2.08,-8.50,26.00,32.00,53.650925,9.698083,8.00,0.15,12,3.98-1,-7,-115,-4,6,2
274356,-0.13,0.02,0.98,4.88,-8.24,-0.12,-11.50,24.00,33.00,53.650925,9.698083,8.00,0.22,12,4.06-1,-7,-122,-4,6,2
274456,-0.15,-0.00,0.97,1.89,7.93,6.59,-10.50,25.00,32.00,53.650925,9.698084,8.00,0.33,12,4.040,-8,-121,-3,6,2
274563,-0.14,-0.00,0.95,7.87,-7.39,8.54,-8.50,25.00,36.00,53.650925,9.698084,8.00,0.09,12,4.030,-8,-118,-4,6,2
274674,-0.14,0.02,0.96,-0.92,1.46,4.88,-9.50,24.00,33.00,53.650925,9.698084,8.00,0.09,12,4.08-1,-8,-119,-4,6,2
274774,-0.11,0.01,1.00,-4.03,6.16,1.53,-11.50,22.00,35.00,53.650925,9.698084,8.00,0.09,12,4.060,-6,-124,-4,6,2
274874,-0.11,0.01,0.96,-9.95,4.39,11.66,-11.50,24.00,35.00,53.650925,9.698084,8.00,0.09,12,3.980,-6,-122,-4,6,2
274974,-0.15,-0.01,1.02,2.38,-25.45,-5.49,-10.50,22.00,34.00,53.650925,9.698084,8.00,0.11,12,4.030,-8,-125,-3,6,2
275081,-0.11,0.06,0.97,-7.81,-9.95,1.59,-11.50,26.00,32.00,53.650925,9.698084,8.00,0.11,12,4.05-3,-6,-118,-4,6,2
275181,-0.18,-0.04,0.99,-1.16,-7.08,-3.11,-10.50,25.00,30.00,53.650925,9.698084,8.00,0.11,12,4.082,-10,-123,-3,6,2
275282,-0.17,0.03,0.99,-12.51,3.36,-1.28,-10.50,27.00,33.00,53.650925,9.698084,8.00,0.11,12,4.09-1,-9,-119,-4,6,2
275382,-0.20,0.02,0.96,-0.49,-7.14,-4.70,-8.50,27.00,35.00,53.650925,9.698084,8.00,0.11,12,4.09-1,-11,-118,-4,6,2
275482,-0.16,0.08,0.99,-0.61,-6.16,6.41,-8.50,27.00,35.00,53.650925,9.698084,8.00,0.11,12,4.10-4,-9,-115,-4,6,2
275582,-0.15,0.01,1.00,-5.31,7.39,11.11,-8.50,27.00,33.00,53.650925,9.698084,8.00,0.11,12,4.070,-8,-116,-4,6,2
275682,-0.36,-0.29,0.89,-11.35,15.20,-41.20,-8.50,26.00,31.00,53.650925,9.698084,8.00,0.11,12,4.0718,-20,-138,-4,6,2
275806,0.03,0.01,1.01,12.15,61.65,2.38,-8.50,23.00,38.00,53.650925,9.698084,8.00,0.11,12,4.090,1,-107,-4,6,2
275909,-0.15,0.08,1.00,5.43,-37.84,1.10,-10.50,21.00,41.00,53.650925,9.698084,8.00,0.11,12,4.10-4,-8,-124,-3,6,2
276009,-0.10,0.05,1.01,-2.56,16.05,44.49,-10.50,19.00,38.00,53.650925,9.698084,8.00,0.11,12,4.10-2,-5,-124,-4,6,2
276109,-0.11,0.05,1.02,-9.64,-25.88,41.20,-12.50,19.00,35.00,53.650925,9.698084,8.00,0.11,12,4.10-2,-6,-128,-4,6,2
276209,-0.16,0.07,1.15,-21.79,-2.81,90.52,-13.50,18.00,38.00,53.650925,9.698084,8.00,0.11,12,4.07-3,-7,-132,-4,6,2
276309,-0.23,0.09,1.05,1.95,-28.38,56.27,-16.50,21.00,35.00,53.650925,9.698084,8.00,0.11,12,4.05-4,-12,-135,-3,6,2
276409,-0.37,-0.04,0.78,18.43,-98.94,70.62,-19.50,24.00,29.00,53.650925,9.698084,8.00,0.11,12,4.063,-25,-142,-3,6,2
276509,-0.55,-0.08,0.58,26.92,-121.58,76.97,-24.50,28.00,26.00,53.650925,9.698084,8.00,0.11,12,4.067,-43,-142,-3,6,2
276612,-0.49,-0.14,0.63,35.22,-49.68,31.98,-28.50,29.00,18.00,53.650925,9.698084,8.00,0.11,12,4.0812,-37,-139,-3,6,2
276712,-0.48,-0.27,0.73,8.06,-43.76,11.90,-28.50,28.00,13.00,53.650925,9.698084,8.00,0.11,12,4.0620,-31,-138,-4,6,2
276812,-0.55,-0.33,0.66,23.99,11.47,-3.30,-31.50,29.00,17.00,53.650925,9.698084,8.00,0.11,12,4.0426,-36,-141,-3,6,2
276913,-0.57,-0.30,0.68,-8.48,-1.53,10.01,-32.50,28.00,16.00,53.650925,9.698084,8.00,0.11,12,4.0523,-37,-141,-4,6,2
277013,-0.55,-0.26,0.78,-15.01,28.02,-3.54,-30.50,25.00,17.00,53.650925,9.698084,8.00,0.11,12,4.0618,-33,-144,-3,6,2
277117,-0.58,-0.28,0.75,8.12,3.85,8.61,-30.50,28.00,16.00,53.650925,9.698084,8.00,0.11,12,4.0620,-35,-140,-3,6,2
277218,-0.59,-0.29,0.63,4.58,9.52,3.42,-32.50,26.00,13.00,53.650925,9.698084,8.00,0.11,12,4.0624,-40,-139,-4,6,2
277318,-0.62,-0.31,0.65,5.92,-4.46,7.63,-30.50,27.00,14.00,53.650925,9.698084,8.00,0.11,12,4.0325,-40,-138,-3,6,2
277418,-0.62,-0.32,0.64,8.61,-15.81,6.65,-30.50,28.00,16.00,53.650925,9.698084,8.00,0.11,12,4.0226,-40,-139,-4,6,2
277519,-0.60,-0.31,0.65,6.77,-15.14,4.33,-30.50,28.00,13.00,53.650925,9.698084,8.00,0.11,12,4.0225,-39,-137,-4,6,2
277619,-0.59,-0.34,0.62,7.39,-30.52,0.00,-33.50,30.00,12.00,53.650925,9.698084,8.00,0.11,12,4.0428,-39,-136,-4,6,2
277719,-0.69,-0.34,0.55,11.78,-33.94,5.19,-30.50,30.00,11.00,53.650925,9.698084,8.00,0.11,12,4.0331,-47,-130,-3,6,2
277819,-0.61,-0.35,0.60,2.75,-10.74,3.23,-34.50,29.00,9.00,53.650925,9.698084,8.00,0.11,12,4.0730,-41,-133,-4,6,2
277919,-0.66,-0.35,0.55,12.70,-39.79,0.79,-33.50,30.00,8.00,53.650925,9.698084,8.00,0.11,12,4.0232,-45,-129,-4,6,2
278044,-0.72,-0.38,0.40,8.36,-29.48,0.61,-32.50,30.00,4.00,53.650925,9.698084,8.00,0.11,12,3.9643,-52,-121,-4,6,2
278144,-0.74,-0.38,0.40,-6.10,-26.25,7.51,-33.50,33.00,1.00,53.650925,9.698086,8.00,0.19,12,4.0042,-53,-116,-4,6,2
278244,-0.70,-0.39,0.42,2.56,1.22,6.53,-33.50,32.00,1.00,53.650925,9.698086,8.00,0.11,12,4.0443,-50,-118,-4,6,2
278344,-0.72,-0.38,0.41,-0.67,-5.43,-4.58,-35.50,32.00,3.00,53.650925,9.698086,8.00,0.17,12,4.0542,-52,-120,-4,6,2
278444,-0.70,-0.41,0.41,0.98,-6.84,2.01,-36.50,33.00,-2.00,53.650925,9.698086,8.00,0.17,12,4.0244,-50,-116,-4,6,2
278544,-0.72,-0.39,0.39,5.43,-11.05,-5.74,-34.50,33.00,0.00,53.650925,9.698086,8.00,0.17,12,4.0545,-52,-116,-4,6,2
278645,-0.79,-0.40,0.33,12.57,-26.06,1.83,-34.50,32.00,-4.00,53.650925,9.698086,8.00,0.02,12,4.0750,-56,-109,-4,6,2
278745,-0.74,-0.41,0.34,6.10,-7.81,12.51,-33.50,33.00,-8.00,53.650925,9.698086,8.00,0.24,12,4.0650,-54,-106,-4,6,2
278845,-0.73,-0.42,0.34,29.17,-46.51,18.43,-35.50,32.00,-6.00,53.650925,9.698086,8.00,0.11,12,4.1151,-53,-109,-4,6,2
278945,-0.81,-0.45,0.02,41.69,-54.87,4.03,-34.50,33.00,-11.00,53.650925,9.698086,8.00,0.06,12,4.0386,-60,-100,-4,6,2
279046,-0.80,-0.45,0.03,2.32,5.86,-7.45,-35.50,32.00,-14.00,53.650925,9.698086,8.00,0.06,12,4.0186,-60,-97,-4,6,2
279194,-0.81,-0.46,0.10,1.83,-1.65,-2.08,-34.50,35.00,-17.00,53.650925,9.698086,8.00,0.43,12,4.0677,-59,-93,-4,6,2
279294,-0.76,-0.46,0.09,-7.14,10.68,0.06,-34.50,33.00,-15.00,53.650925,9.698086,8.00,0.43,12,4.0678,-58,-97,-4,6,2
279394,-0.86,-0.46,0.14,-2.38,-1.65,10.80,-32.50,31.00,-18.00,53.650925,9.698086,8.00,0.43,12,3.9873,-60,-90,-4,6,2
279496,-0.75,-0.41,0.13,3.30,-3.30,-3.36,-32.50,33.00,-17.00,53.650925,9.698086,8.00,0.43,12,4.0272,-60,-91,-4,6,2
279596,-0.84,-0.47,0.06,-1.71,4.76,-1.46,-34.50,32.00,-10.00,53.650925,9.698086,8.00,0.43,12,4.0582,-60,-101,-4,6,2
279696,-1.03,-0.44,0.16,2.44,24.84,-23.01,-34.50,35.00,-16.00,53.650925,9.698086,8.00,0.43,12,4.0370,-65,-89,-4,6,2
279796,-1.15,-0.54,-0.41,108.03,-158.14,-22.77,-31.50,42.00,-12.00,53.650925,9.698086,8.00,0.43,12,4.05126,-59,-165,-4,6,2
279899,-0.82,-0.30,0.23,-26.25,41.50,27.40,-28.50,46.00,-15.00,53.650925,9.698086,8.00,0.43,12,4.0653,-65,-88,-4,6,2
279999,-0.74,-0.32,0.26,-50.90,97.23,21.55,-30.50,37.00,-6.00,53.650925,9.698086,8.00,0.43,12,4.0751,-60,-101,-4,6,2
280099,-0.54,-0.27,0.56,-39.79,127.75,17.15,-32.50,30.00,8.00,53.650925,9.698086,8.00,0.43,12,4.0525,-41,-131,-3,6,2
280199,-0.37,-0.32,0.77,-44.74,118.35,-0.67,-32.50,26.00,18.00,53.650925,9.698086,8.00,0.43,12,4.0422,-24,-148,-4,6,2
280299,-0.30,-0.22,0.80,-23.13,48.28,-5.07,-31.50,19.00,24.00,53.650925,9.698086,8.00,0.43,12,4.0215,-19,-158,-4,6,2
280399,-0.18,-0.13,0.58,-30.70,27.53,-50.60,-30.50,18.00,25.00,53.650925,9.698086,8.00,0.43,12,4.0412,-17,-158,-4,6,2
280499,-0.03,-0.06,0.44,-62.74,94.60,-80.69,-27.50,18.00,32.00,53.650925,9.698086,8.00,0.43,12,4.067,-4,-155,-4,6,2
280599,-0.19,0.09,0.65,-130.92,141.24,-36.62,-16.50,16.00,40.00,53.650925,9.698086,8.00,0.43,12,4.07-7,-16,-143,-4,6,2
280700,-0.26,0.12,0.97,-67.69,117.49,-14.40,-7.50,9.00,42.00,53.650925,9.698086,8.00,0.43,12,4.07-7,-14,-142,-4,6,2
280800,-0.11,0.17,1.22,-13.98,-17.76,-11.35,-2.50,4.00,44.00,53.650925,9.698086,8.00,0.43,12,4.09-8,-5,-121,-4,6,2
280900,0.17,0.39,1.34,-15.44,-7.02,45.41,-1.50,7.00,43.00,53.650925,9.698086,8.00,0.43,12,4.10-16,6,-78,-4,6,2
281000,0.28,0.59,1.29,0.85,49.68,22.34,-1.50,3.00,43.00,53.650925,9.698086,8.00,0.43,12,4.08-24,11,-71,-5,6,2
281100,0.27,0.58,1.87,216.55,24.11,-26.37,-1.50,4.00,43.00,53.650925,9.698086,8.00,0.43,12,4.10-17,7,-75,-5,6,2
281200,0.21,0.17,1.30,34.55,-2.99,-6.23,-8.50,5.00,46.00,53.650925,9.698086,8.00,0.43,12,4.09-7,9,-95,-5,6,2
281300,0.03,0.19,0.97,3.42,-3.66,0.61,-10.50,3.00,44.00,53.650925,9.698086,8.00,0.43,12,4.09-10,1,-128,-4,6,2
281400,0.04,0.17,1.00,0.37,-0.37,0.18,-9.50,4.00,46.00,53.650925,9.698086,8.00,0.43,12,4.10-9,2,-123,-5,6,2
281500,0.05,0.17,1.00,0.18,0.00,0.00,-12.50,3.00,43.00,53.650925,9.698086,8.00,0.43,12,4.09-9,2,-136,-5,6,2
281600,0.05,0.17,1.00,0.24,-0.06,0.06,-12.50,3.00,41.00,53.650925,9.698086,8.00,0.43,12,3.97-9,2,-137,-4,6,2
281700,0.05,0.17,1.00,0.24,-0.06,0.00,-8.50,4.00,41.00,53.650925,9.698086,8.00,0.43,12,4.10-9,2,-121,-5,6,2
281800,0.05,0.17,1.00,0.12,0.00,0.12,-12.50,4.00,45.00,53.650925,9.698086,8.00,0.43,12,4.10-9,2,-132,-5,6,2
281902,0.05,0.17,1.00,0.12,0.00,0.06,-10.50,2.00,39.00,53.650925,9.698086,8.00,0.43,12,4.08-9,2,-135,-5,6,2
282002,0.05,0.17,1.00,0.18,-0.06,0.00,-11.50,4.00,42.00,53.650925,9.698086,8.00,0.43,12,4.08-9,2,-131,-5,6,2
282102,0.05,0.17,1.00,0.12,-0.06,0.00,-12.50,4.00,37.00,53.650925,9.698086,8.00,0.43,12,4.06-9,2,-137,-4,6,2
282202,0.04,0.17,1.00,0.12,-0.06,0.00,-11.50,3.00,43.00,53.650925,9.698086,8.00,0.43,12,3.86-9,2,-133,-4,6,2
282302,0.04,0.17,1.00,0.12,-0.06,0.00,-10.50,2.00,43.00,53.650925,9.698086,8.00,0.43,12,3.96-9,2,-133,-5,6,2
282402,0.05,0.17,1.00,0.18,0.00,0.06,-9.50,3.00,44.00,53.650925,9.698086,8.00,0.43,12,4.04-9,2,-126,-5,6,2
282502,0.04,0.17,1.00,0.12,-0.06,0.12,-12.50,4.00,42.00,53.650925,9.698086,8.00,0.43,12,3.96-9,2,-134,-4,6,2
282602,0.04,0.17,1.00,0.18,-0.06,0.12,-10.50,5.00,42.00,53.650925,9.698086,8.00,0.43,12,4.05-9,2,-125,-5,6,2
282702,0.04,0.17,1.00,0.18,0.00,0.12,-11.50,2.00,39.00,53.650925,9.698086,8.00,0.43,12,4.05-9,2,-139,-5,6,2
282802,0.04,0.17,1.00,0.12,0.00,0.06,-12.50,5.00,42.00,53.650925,9.698086,8.00,0.43,12,4.06-9,2,-131,-4,6,2
282902,0.05,0.17,1.00,0.12,-0.06,0.06,-11.50,4.00,40.00,53.650925,9.698086,8.00,0.43,12,3.90-9,2,-132,-5,6,2
283002,0.04,0.17,1.00,0.12,-0.06,0.06,-11.50,1.00,44.00,53.650925,9.698086,8.00,0.43,12,4.06-9,2,-139,-4,6,2
283102,0.04,0.16,1.00,0.12,0.00,0.06,-11.50,4.00,43.00,53.650925,9.698086,8.00,0.43,12,4.06-9,2,-131,-5,6,2
283202,0.04,0.17,1.00,0.12,0.00,0.06,-11.50,4.00,38.00,53.650925,9.698086,8.00,0.43,12,4.05-9,2,-133,-4,6,2
283302,0.04,0.17,1.00,0.06,0.00,0.06,-11.50,2.00,44.00,53.650925,9.698086,8.00,0.43,12,4.08-9,2,-136,-5,6,2
283402,0.04,0.17,1.00,0.06,-0.06,0.00,-12.50,4.00,47.00,53.650925,9.698086,8.00,0.43,12,4.09-9,2,-131,-4,6,2
283502,0.04,0.17,1.00,0.12,-0.06,0.06,-10.50,3.00,37.00,53.650925,9.698086,8.00,0.43,12,4.06-9,2,-134,-4,6,2
283602,0.05,0.16,1.00,0.12,-0.06,0.00,-10.50,3.00,36.00,53.650925,9.698086,8.00,0.43,12,4.06-9,2,-135,-5,6,2
283702,0.04,0.16,1.00,0.06,0.00,0.06,-8.50,3.00,43.00,53.650925,9.698086,8.00,0.43,12,4.07-9,2,-123,-4,6,2
283802,0.04,0.16,1.00,0.06,-0.06,0.06,-11.50,5.00,43.00,53.650925,9.698086,8.00,0.43,12,4.08-9,2,-128,-5,6,2
283902,0.04,0.17,1.00,0.12,0.00,0.06,-10.50,4.00,44.00,53.650925,9.698086,8.00,0.43,12,4.06-9,2,-127,-4,6,2
284002,0.04,0.17,1.00,0.12,-0.06,0.00,-11.50,3.00,45.00,53.650925,9.698087,7.00,0.43,12,4.06-9,2,-132,-4,6,2
284104,0.04,0.16,1.00,0.12,-0.06,0.00,-10.50,3.00,45.00,53.650925,9.698088,7.00,0.13,12,4.07-9,2,-129,-4,6,2
284204,0.04,0.16,1.00,0.06,0.00,0.00,-10.50,3.00,38.00,53.650925,9.698088,7.00,0.13,12,3.98-9,2,-133,-5,6,2
284304,0.04,0.16,1.00,0.06,0.06,0.06,-11.50,4.00,42.00,53.650925,9.698088,7.00,0.13,12,4.06-9,2,-131,-5,6,2
284404,0.04,0.16,1.00,0.12,0.00,0.00,-10.50,5.00,39.00,53.650925,9.698088,7.00,0.13,12,4.10-9,2,-127,-5,6,2
284504,0.04,0.16,1.00,0.06,-0.06,0.06,-11.50,3.00,41.00,53.650925,9.698088,7.00,0.13,12,4.07-9,2,-135,-4,6,2
284685,0.04,0.16,1.00,0.00,0.00,0.00,-10.50,3.00,39.00,53.650925,9.698088,7.00,0.13,12,4.09-9,2,-133,-5,6,2
284785,0.04,0.17,1.00,0.12,0.00,0.06,-10.50,1.00,39.00,53.650925,9.698088,7.00,0.13,12,4.06-9,2,-139,-4,6,2
284885,0.04,0.16,1.00,0.12,0.00,0.06,-11.50,3.00,42.00,53.650925,9.698088,7.00,0.13,12,4.06-9,2,-134,-5,6,2
284985,0.04,0.17,1.00,0.12,0.00,0.00,-10.50,2.00,46.00,53.650925,9.698088,7.00,0.13,12,4.09-9,2,-131,-4,6,2
285085,0.04,0.16,1.00,0.12,-0.06,0.00,-10.50,5.00,39.00,53.650925,9.698088,7.00,0.13,12,4.06-9,2,-127,-5,6,2
285185,0.04,0.16,1.00,0.12,0.00,0.06,-12.50,3.00,39.00,53.650925,9.698088,7.00,0.13,12,4.04-9,2,-139,-5,6,2
285296,0.04,0.17,1.00,0.12,0.00,0.00,-13.50,3.00,35.00,53.650925,9.698088,7.00,0.13,12,3.99-9,2,-143,-4,6,2
285396,0.04,0.16,1.00,0.00,0.00,0.00,-11.50,1.00,39.00,53.650925,9.698088,7.00,0.13,12,3.93-9,2,-143,-4,6,2
285496,0.04,0.16,1.00,0.06,0.00,0.00,-12.50,5.00,43.00,53.650925,9.698088,7.00,0.13,12,3.87-9,2,-131,-5,6,2
285599,0.04,0.16,1.00,0.06,0.00,0.00,-11.50,3.00,42.00,53.650925,9.698088,7.00,0.13,12,4.08-9,2,-134,-5,6,2
285701,0.04,0.16,1.00,0.12,-0.06,0.00,-11.50,3.00,43.00,53.650925,9.698088,7.00,0.13,12,3.84-9,2,-133,-5,6,2
285801,0.04,0.16,1.00,0.18,-0.12,-0.06,-10.50,5.00,41.00,53.650925,9.698088,7.00,0.13,12,4.04-9,2,-127,-5,6,2
285901,0.04,0.16,1.00,0.55,-0.37,0.06,-10.50,1.00,41.00,53.650925,9.698088,7.00,0.13,12,4.09-9,2,-138,-5,6,2
286001,0.05,0.17,1.00,-0.61,0.98,0.12,-10.50,2.00,40.00,53.650925,9.698088,7.00,0.13,12,4.06-9,2,-133,-4,6,2
286101,0.05,0.16,1.00,0.12,0.18,0.06,-9.50,4.00,35.00,53.650925,9.698088,7.00,0.13,12,4.06-9,2,-129,-5,6,2
286201,0.04,0.17,1.01,3.72,-3.48,1.10,-11.50,6.00,36.00,53.650925,9.698088,7.00,0.13,12,4.08-9,2,-130,-5,6,2
286302,0.06,0.18,0.99,0.73,-0.49,0.31,-11.50,5.00,39.00,53.650925,9.698088,7.00,0.13,12,4.07-10,3,-128,-5,6,2
286402,0.05,0.17,1.01,-0.85,1.53,-1.59,-11.50,4.00,37.00,53.650925,9.698088,7.00,0.13,12,4.04-9,3,-133,-5,6,2
286502,0.02,0.15,0.99,5.19,-6.35,-1.59,-8.50,6.00,39.00,53.650925,9.698088,7.00,0.13,12,4.05-8,1,-123,-5,6,2
286602,0.06,0.16,1.00,-0.31,-0.24,1.28,-10.50,5.00,38.00,53.650925,9.698088,7.00,0.13,12,4.07-9,3,-126,-4,6,2
286702,0.02,0.16,1.00,-3.36,5.37,-0.18,-10.50,7.00,41.00,53.650925,9.698088,7.00,0.13,12,4.07-9,1,-125,-4,6,2
286802,0.08,0.20,0.98,-0.49,3.48,-3.36,-8.50,3.00,34.00,53.650925,9.698088,7.00,0.13,12,4.16-11,4,-119,-5,6,2
286902,0.03,0.18,1.01,-1.10,0.00,-1.40,-11.50,4.00,38.00,53.650925,9.698088,7.00,0.13,12,4.08-10,1,-133,-5,6,2
287002,-0.02,0.17,0.98,1.65,-1.53,-9.16,-10.50,6.00,41.00,53.650925,9.698088,7.00,0.13,12,4.06-10,-1,-130,-5,6,2
287102,0.02,0.13,1.03,-0.06,-0.06,-2.20,-12.50,4.00,35.00,53.650925,9.698088,7.00,0.13,12,4.04-7,0,-144,-4,6,2
287202,0.07,0.12,1.02,-7.69,-2.50,-9.70,-10.50,8.00,39.00,53.650925,9.698088,7.00,0.13,12,4.08-6,3,-121,-4,6,2
287307,0.02,0.15,1.04,2.75,1.89,-7.26,-7.50,7.00,37.00,53.650925,9.698088,7.00,0.13,12,3.98-8,0,-119,-4,6,2
287407,0.08,0.18,0.99,-1.89,3.23,-5.19,-8.50,7.00,37.00,53.650925,9.698088,7.00,0.13,12,4.09-10,4,-111,-4,6,2
287507,-0.06,0.14,0.91,7.39,-1.46,0.18,-8.50,7.00,41.00,53.650925,9.698088,7.00,0.13,12,4.04-8,-3,-130,-4,6,2
287607,0.15,0.18,1.06,-4.46,-3.05,0.00,-9.50,10.00,37.00,53.650925,9.698088,7.00,0.13,12,4.06-9,7,-104,-4,6,2
287707,-0.00,0.13,0.99,5.43,1.71,-1.46,-11.50,8.00,40.00,53.650925,9.698088,7.00,0.13,12,4.05-7,0,-131,-5,6,2
287807,0.18,0.22,1.09,-2.26,-10.07,6.71,-10.50,8.00,34.00,53.650925,9.698088,7.00,0.13,12,4.05-11,9,-108,-5,6,2
287925,0.01,0.17,1.09,-15.01,2.81,3.30,-11.50,8.00,36.00,53.650925,9.698088,7.00,0.13,12,4.23-8,0,-129,-4,6,2
288025,0.01,0.22,0.79,15.69,8.36,-3.72,-8.50,4.00,37.00,53.650925,9.698088,7.00,0.13,12,4.05-15,0,-120,-4,6,2
288125,0.10,0.18,0.96,13.18,-16.66,2.62,-6.50,6.00,36.00,53.650925,9.698088,7.00,0.13,12,4.06-10,5,-103,-5,6,2
288226,0.05,0.20,0.93,21.42,-7.32,-1.40,-11.50,9.00,37.00,53.650925,9.698088,7.00,0.13,12,4.08-12,3,-119,-4,6,2
288326,-0.06,0.09,1.01,12.70,-9.83,-2.93,-12.50,12.00,32.00,53.650925,9.698088,7.00,0.13,12,3.94-4,-3,-134,-4,6,2
288426,-0.04,0.07,1.02,5.74,-2.38,0.61,-12.50,13.00,36.00,53.650925,9.698088,7.00,0.13,12,4.08-3,-2,-131,-5,6,2
288526,-0.03,0.02,1.12,-31.01,-0.31,-1.77,-12.50,12.00,37.00,53.650925,9.698088,7.00,0.13,12,4.070,-1,-136,-5,6,2
288626,-0.01,0.17,0.98,-65.49,11.17,-3.78,-5.50,12.00,38.00,53.650925,9.698088,7.00,0.13,12,4.09-9,0,-107,-5,6,2
288726,-0.05,0.38,0.88,-61.77,-38.33,-19.47,-3.50,15.00,39.00,53.650925,9.698088,7.00,0.13,12,4.10-23,-3,-100,-5,6,2
288826,-0.03,0.43,0.96,-36.13,-3.54,-18.68,4.50,15.00,38.00,53.650925,9.698088,7.00,0.13,12,4.06-24,-1,-83,-4,6,2
288926,-0.07,0.51,0.85,-23.99,-10.74,-5.25,4.50,17.00,35.00,53.650925,9.698088,7.00,0.13,12,4.05-30,-3,-86,-5,6,2
289026,-0.19,0.39,0.95,-32.53,-8.00,-16.66,6.50,22.00,37.00,53.650925,9.698088,7.00,0.13,12,4.07-22,-10,-90,-4,6,2
289126,-0.17,0.46,0.95,-57.92,-0.43,-48.28,10.50,19.00,30.00,53.650925,9.698088,7.00,0.13,12,4.08-25,-9,-79,-5,6,2
289226,-0.06,0.63,0.67,-45.65,8.00,-28.56,18.50,17.00,35.00,53.650925,9.698088,7.00,0.13,12,4.08-43,-3,-66,-5,6,2
289333,0.09,0.75,0.74,-20.63,44.13,-16.24,19.50,18.00,35.00,53.650925,9.698088,7.00,0.13,12,4.07-45,4,-58,-4,6,2
289433,0.08,0.71,0.83,-15.87,-48.65,14.04,21.50,15.00,28.00,53.650925,9.698088,7.00,0.13,12,3.95-40,4,-50,-5,6,2
289533,0.00,0.70,0.73,-1.28,8.12,-6.77,19.50,17.00,31.00,53.650925,9.698088,7.00,0.13,12,4.08-43,0,-59,-5,6,2
289633,-0.33,0.73,0.55,-0.73,-17.58,0.73,18.50,18.00,34.00,53.650925,9.698088,7.00,0.13,12,4.05-52,-19,-81,-5,6,2
289733,0.01,0.79,0.59,-7.14,2.87,-4.15,21.50,20.00,33.00,53.650925,9.698088,7.00,0.22,12,4.05-53,0,-60,-5,6,2
289836,0.32,0.76,1.03,1.71,-0.18,7.51,20.50,20.00,33.00,53.650925,9.698088,7.00,0.22,12,4.07-36,14,-49,-5,6,2
289936,-0.17,0.68,0.86,3.36,-2.69,8.12,20.50,19.00,32.00,53.650925,9.698088,7.00,0.06,12,4.03-38,-8,-67,-4,6,2
290036,-0.39,0.73,0.45,4.52,2.62,-5.00,18.50,19.00,28.00,53.650925,9.698088,7.00,0.06,12,4.06-58,-24,-82,-4,6,2
290139,0.13,0.77,0.78,2.38,13.24,-3.48,23.50,18.00,36.00,53.650925,9.698088,7.00,0.06,12,4.04-44,6,-52,-5,6,2
290239,0.20,0.72,1.00,3.91,12.02,-0.98,20.50,20.00,32.00,53.650925,9.698088,7.00,0.13,12,4.05-35,9,-52,-5,6,2
290339,-0.31,0.65,0.73,1.77,-5.31,6.84,18.50,18.00,20.00,53.650925,9.698088,7.00,0.06,12,4.01-41,-17,-68,-5,6,2
290439,-0.24,0.74,0.54,2.14,-6.23,-0.12,21.50,19.00,27.00,53.650925,9.698088,7.00,0.06,12,4.06-53,-14,-69,-5,6,2
290539,0.25,0.75,0.85,0.43,8.61,-5.92,18.50,18.00,32.00,53.650925,9.698088,7.00,0.06,12,4.01-41,12,-51,-5,6,2
290639,0.27,0.75,0.90,1.46,3.85,2.44,19.50,21.00,33.00,53.650925,9.698088,7.00,0.06,12,4.05-40,13,-51,-4,6,2
290739,-0.39,0.69,0.56,0.12,-11.60,5.31,18.50,17.00,26.00,53.650925,9.698088,7.00,0.06,12,3.76-51,-23,-79,-5,6,2
290839,-0.38,0.67,0.64,-3.66,-21.12,0.43,18.50,22.00,35.00,53.650925,9.698089,7.00,0.00,12,4.06-46,-22,-85,-5,6,2
290939,-0.15,0.74,0.61,3.23,13.00,-9.03,20.50,24.00,33.00,53.650925,9.698088,7.00,0.02,12,4.14-50,-8,-70,-5,6,2
291039,0.29,0.75,0.89,1.40,-1.22,0.43,18.50,22.00,34.00,53.650925,9.698088,7.00,0.02,12,4.10-40,13,-53,-4,6,2
291139,0.27,0.74,0.91,6.59,-0.79,3.42,17.50,23.00,32.00,53.650925,9.698088,6.90,0.06,12,4.08-39,12,-55,-4,6,2
291253,-0.19,0.72,0.64,5.86,-0.43,-5.74,20.50,22.00,31.00,53.650925,9.698088,6.90,0.02,12,4.06-48,-11,-70,-4,6,2
291355,0.27,0.72,0.86,3.78,0.37,-1.10,18.50,25.00,29.00,53.650925,9.698088,6.90,0.09,12,4.06-40,13,-54,-4,6,2
291456,0.05,0.70,0.88,1.34,-2.50,0.06,18.50,25.00,32.00,53.650925,9.698088,6.90,0.04,12,4.22-38,2,-62,-4,6,2
291558,-0.36,0.65,0.65,4.21,-18.92,8.54,15.50,24.00,29.00,53.650925,9.698088,6.90,0.13,12,4.04-45,-21,-84,-4,6,2
291658,-0.23,0.64,0.89,4.39,-4.15,2.50,17.50,25.00,30.00,53.650925,9.698088,6.90,0.13,12,4.05-36,-11,-74,-4,6,2
291758,-0.07,0.72,0.63,2.56,0.37,-4.15,14.50,26.00,31.00,53.650925,9.698088,6.90,0.13,12,4.08-48,-3,-73,-4,6,2
291858,-0.36,0.58,0.81,-7.75,-1.04,-3.48,14.50,26.00,31.00,53.650925,9.698088,6.90,0.13,12,4.08-35,-19,-85,-4,6,2
291958,-0.17,0.69,0.90,10.25,-5.80,5.86,14.50,29.00,31.00,53.650925,9.698088,6.80,0.19,12,4.06-37,-8,-77,-4,6,2
292058,0.15,0.73,0.82,3.42,7.57,3.36,16.50,28.00,33.00,53.650925,9.698088,6.80,0.19,12,4.11-41,7,-63,-4,6,2
292159,-0.28,0.64,0.74,20.81,25.51,-1.71,17.50,26.00,38.00,53.650925,9.698088,6.80,0.19,12,3.96-40,-15,-82,-4,6,2
292259,-0.01,0.60,0.82,24.90,24.60,3.17,16.50,21.00,31.00,53.650925,9.698088,6.80,0.28,12,4.08-36,0,-65,-4,6,2
292359,-0.06,0.59,0.85,18.07,-1.28,26.37,13.50,18.00,30.00,53.650925,9.698088,6.80,0.20,12,4.04-34,-3,-69,-4,6,2
292459,-0.10,0.56,0.77,14.65,-8.06,0.18,10.50,19.00,35.00,53.650925,9.698088,6.80,0.07,12,4.07-36,-5,-79,-4,6,2
292559,-0.10,0.54,1.03,16.11,38.88,-56.52,7.50,22.00,38.00,53.650925,9.698088,6.80,0.13,12,3.94-27,-5,-83,-4,6,2
292659,0.25,0.47,0.81,16.30,32.23,-12.39,9.50,15.00,34.00,53.650925,9.698088,6.80,0.13,12,4.07-30,14,-57,-5,6,2
292759,0.08,0.32,1.18,115.78,20.94,35.28,5.50,17.00,37.00,53.650925,9.698088,6.80,0.22,12,4.08-15,3,-73,-4,6,2
292859,-0.02,0.48,0.57,1.10,14.47,-2.93,0.50,11.00,38.00,53.650925,9.698088,6.80,0.22,12,4.06-39,-1,-90,-4,6,2
292959,0.33,-0.23,1.82,89.17,30.46,-2.26,-4.50,8.00,38.00,53.650925,9.698089,6.80,0.46,12,3.857,10,-55,-5,6,2
