timestamp,accX,accY,accZ,gyroX,gyroY,gyroZ,magX,magY,magZ,latitude,longitude,gpsAltitude,Speed,SatCount,roll,pitch,yaw,pressure,temperature,paltitude
126441,0.00,-0.00,1.00,0.00,0.00,-0.12,19.00,-16.50,40.50,53.650959,9.698473,5.20,0.37,12,3.650,0,16,-2,2,2
128843,0.00,-0.00,1.00,-0.06,0.00,-0.06,20.00,-20.50,45.50,53.650921,9.698445,3.60,0.37,12,3.670,0,16,-1,2,2
128951,0.00,0.00,1.00,0.06,-0.06,0.12,19.00,-21.50,51.50,53.650921,9.698445,3.60,0.37,12,3.650,0,17,-1,2,2
129051,0.00,-0.01,1.00,0.06,-0.12,0.18,16.00,-19.50,52.50,53.650921,9.698445,3.60,0.37,12,3.610,0,18,-1,2,2
129151,-0.01,0.04,0.89,6.04,2.26,-0.12,18.00,-15.50,52.50,53.650921,9.698445,3.60,0.37,12,3.40-2,0,19,-2,2,2
129251,0.04,-0.06,0.99,27.77,-3.60,2.26,13.00,-17.50,48.50,53.650921,9.698444,3.60,0.20,12,3.64-14,1,21,-2,2,2
129351,0.02,-0.02,0.96,4.33,1.65,0.31,18.00,-15.50,50.50,53.650921,9.698444,3.60,0.20,12,3.63-11,0,20,-1,2,2
129451,0.01,-0.07,1.00,0.37,0.37,0.00,17.00,-14.50,48.50,53.650921,9.698444,3.60,0.20,12,3.65-3,0,24,-2,2,2
129551,-0.02,-0.05,0.92,-0.18,-0.18,0.43,11.00,-12.50,57.50,53.650921,9.698444,3.60,0.20,12,3.662,0,39,-1,2,2
129652,0.02,-0.07,1.02,0.06,0.12,-0.06,18.00,-15.50,52.50,53.650921,9.698444,3.60,0.20,12,3.566,0,48,-2,2,2
129752,0.14,0.15,0.94,-0.31,1.65,23.68,17.00,-12.50,55.50,53.650921,9.698444,3.60,0.20,12,3.641,4,54,-2,2,2
129869,-0.01,-0.08,0.99,-0.18,0.85,-1.65,17.00,-12.50,52.50,53.650921,9.698444,3.60,0.20,12,3.624,2,44,-2,2,2
129969,0.01,-0.06,1.00,0.43,-0.37,-0.12,14.00,-13.50,57.50,53.650921,9.698444,3.60,0.20,12,3.564,1,45,-2,2,2
130069,-0.02,-0.12,0.98,-1.53,1.10,-16.30,18.00,-12.50,54.50,53.650921,9.698444,3.60,0.20,12,3.567,0,37,-1,2,2
130169,0.01,-0.06,1.01,0.31,-0.49,0.06,16.00,-11.50,54.50,53.650921,9.698444,3.60,0.09,12,3.545,0,44,-1,2,2
130269,-0.02,-0.08,0.99,-1.16,-1.59,-1.40,17.00,-9.50,57.50,53.650921,9.698444,3.60,0.09,12,3.485,0,43,-2,2,2
130373,0.01,-0.07,1.00,0.00,0.00,-0.18,18.00,-8.50,56.50,53.650921,9.698444,3.60,0.09,12,3.634,0,38,-2,2,2
130473,0.00,-0.06,1.00,0.00,0.06,1.95,17.00,-8.50,55.50,53.650921,9.698444,3.60,0.09,12,3.633,0,36,-1,2,2
130573,0.00,-0.08,1.00,-0.18,-0.37,-0.49,18.00,-8.50,60.50,53.650921,9.698444,3.60,0.09,12,3.534,0,34,-1,2,2
130673,0.00,-0.07,1.00,-0.06,-0.49,0.06,11.00,-8.50,55.50,53.650921,9.698444,3.60,0.09,12,3.534,0,43,-2,2,2
130773,0.02,-0.06,1.01,-0.06,-0.43,0.98,17.00,-8.50,58.50,53.650921,9.698444,3.60,0.09,12,3.613,1,37,-2,2,2
130873,0.01,-0.07,0.99,-0.18,-0.67,0.85,20.00,-9.50,56.50,53.650921,9.698444,3.60,0.09,12,3.613,0,33,-1,2,2
131027,0.01,-0.06,0.99,-0.85,-0.06,2.44,17.00,-7.50,52.50,53.650921,9.698443,3.50,0.04,12,3.633,0,32,-1,2,2
131127,0.05,-0.03,1.00,0.73,-0.06,1.40,14.00,-9.50,57.50,53.650921,9.698443,3.50,0.04,12,3.651,2,32,-2,2,2
131227,-0.09,-0.18,0.98,0.00,0.00,-5.19,15.00,-8.50,55.50,53.650921,9.698443,3.50,0.04,12,3.528,-3,47,-2,2,2
131327,0.01,-0.07,1.00,-0.06,0.00,-1.40,20.00,-9.50,50.50,53.650921,9.698443,3.50,0.04,12,3.595,0,41,-2,2,2
131427,0.01,-0.08,1.01,-1.53,-0.67,-0.49,18.00,-8.50,53.50,53.650921,9.698443,3.50,0.22,12,3.505,0,36,-1,2,2
131527,-0.00,-0.09,1.02,3.11,-1.65,0.73,10.00,-10.50,54.50,53.650921,9.698443,3.50,0.06,12,3.583,0,49,-1,2,2
131627,-0.01,-0.08,1.01,0.98,-0.49,0.61,15.00,-9.50,50.50,53.650921,9.698443,3.50,0.06,12,3.504,0,44,-2,2,2
131727,0.01,-0.07,1.01,-0.06,0.18,0.37,20.00,-10.50,50.50,53.650921,9.698443,3.50,0.06,12,3.604,0,37,-1,2,2
131827,0.01,-0.06,0.99,0.12,0.24,0.67,14.00,-12.50,53.50,53.650921,9.698443,3.50,0.06,12,3.463,0,45,-1,2,2
131927,0.01,-0.08,1.00,-0.06,-0.24,0.85,16.00,-9.50,56.50,53.650921,9.698443,3.50,0.06,12,3.644,0,40,-1,2,2
132054,0.02,-0.04,1.00,0.00,0.06,0.61,11.00,-9.50,55.50,53.650921,9.698443,3.50,0.06,12,3.612,1,44,-1,2,2
132154,0.01,-0.06,1.00,0.24,0.24,1.10,17.00,-9.50,53.50,53.650921,9.698443,3.50,0.06,12,3.623,0,37,-1,2,2
132254,0.01,-0.06,1.00,0.06,-0.06,0.31,18.00,-7.50,55.50,53.650921,9.698443,3.50,0.06,12,3.643,0,30,-1,2,2
132354,0.01,-0.07,1.00,0.18,0.12,-2.56,17.00,-8.50,53.50,53.650921,9.698443,3.50,0.06,12,3.623,0,32,-1,2,2
132454,0.08,0.02,0.98,-0.79,0.00,-2.08,16.00,-8.50,55.50,53.650921,9.698442,3.50,0.20,12,3.430,4,23,-1,2,2
132554,0.01,-0.06,1.00,-0.49,-0.18,-0.73,18.00,-11.50,53.50,53.650921,9.698442,3.50,0.20,12,3.642,1,34,-1,2,2
132654,-0.06,-0.17,1.05,1.71,-0.92,5.55,15.00,-8.50,58.50,53.650921,9.698442,3.50,0.20,12,3.638,-2,54,-2,2,2
132754,-0.02,-0.10,1.02,-0.61,0.18,-0.85,17.00,-6.50,57.50,53.650921,9.698442,3.50,0.20,12,3.667,-1,42,-1,2,2
132855,-0.03,-0.09,0.99,2.08,-0.79,4.15,16.00,-7.50,52.50,53.650921,9.698442,3.50,0.20,12,3.654,-1,39,-1,2,2
132955,0.01,-0.05,0.98,-2.93,1.59,-0.85,17.00,-9.50,55.50,53.650921,9.698442,3.50,0.20,12,3.444,0,37,-2,2,2
133058,0.01,-0.07,1.01,2.14,-1.59,1.53,16.00,-8.50,57.50,53.650921,9.698442,3.50,0.20,12,3.622,1,33,-2,2,2
133158,-0.01,-0.06,1.01,-1.16,-0.31,-0.31,17.00,-5.50,57.50,53.650921,9.698442,3.50,0.20,12,3.574,0,30,-1,2,2
133258,0.02,-0.04,0.98,-6.16,2.08,0.73,16.00,-7.50,60.50,53.650921,9.698442,3.50,0.20,12,3.394,0,36,-1,2,2
133359,0.03,-0.06,1.01,-9.64,3.66,5.55,19.00,-6.50,54.50,53.650921,9.698442,3.50,0.19,12,3.594,0,30,-2,2,2
133459,0.00,-0.05,0.99,-1.28,0.12,-0.55,16.00,-6.50,57.50,53.650921,9.698442,3.50,0.19,12,3.590,1,20,-1,2,2
133559,0.01,-0.05,0.99,2.56,-1.28,-0.73,16.00,-7.50,52.50,53.650921,9.698442,3.50,0.19,12,3.580,1,24,-1,2,2
133659,0.01,-0.07,1.01,-1.53,0.49,1.10,16.00,-6.50,55.50,53.650921,9.698442,3.50,0.19,12,3.524,0,34,-1,2,2
133759,-0.00,-0.09,1.00,1.22,-3.11,-1.59,14.00,-8.50,58.50,53.650921,9.698442,3.50,0.19,12,3.604,0,41,-2,2,2
133859,0.01,-0.04,0.95,-6.77,1.22,0.00,14.00,-7.50,57.50,53.650921,9.698442,3.50,0.19,12,3.574,0,42,-1,2,2
133959,-0.01,-0.08,1.01,-1.53,1.65,0.61,16.00,-6.50,54.50,53.650921,9.698442,3.50,0.19,12,3.643,0,33,-1,2,2
134059,0.01,-0.05,0.99,1.59,-1.34,0.12,19.00,-3.50,58.50,53.650921,9.698442,3.60,0.19,12,3.592,0,16,-1,2,2
134159,-0.01,-0.07,1.01,-7.08,3.11,1.95,16.00,-4.50,57.50,53.650921,9.698441,3.60,0.30,12,3.565,-1,34,-1,2,2
134259,0.00,-0.04,0.99,1.28,-0.18,1.46,18.00,-5.50,54.50,53.650921,9.698441,3.60,0.30,12,3.480,0,20,-1,2,2
134359,0.00,-0.06,1.00,-3.30,0.79,3.23,16.00,-9.50,57.50,53.650921,9.698441,3.60,0.30,12,3.583,0,39,-1,2,2
134459,0.01,-0.05,1.01,-0.18,-0.55,0.73,15.00,-6.50,53.50,53.650921,9.698441,3.60,0.30,12,3.612,0,29,-1,2,2
134559,0.02,-0.03,0.99,-2.87,1.83,-2.20,18.00,-7.50,51.50,53.650921,9.698441,3.60,0.30,12,3.502,0,25,-2,2,2
134659,-0.00,-0.06,1.01,-4.70,2.32,-0.67,20.00,-8.50,57.50,53.650921,9.698441,3.60,0.30,12,3.573,0,31,-2,2,2
134759,0.01,-0.03,0.98,1.53,-1.28,-0.06,15.00,-9.50,54.50,53.650921,9.698441,3.60,0.30,12,3.610,1,32,-1,2,2
134859,-0.00,-0.06,1.01,1.34,-0.67,0.18,18.00,-8.50,58.50,53.650921,9.698441,3.60,0.30,12,3.623,0,33,-1,2,2
134959,0.01,-0.05,1.00,-0.61,0.31,-0.12,19.00,-6.50,55.50,53.650921,9.698441,3.60,0.37,12,3.603,0,26,-1,2,2
135059,0.00,-0.07,1.00,-5.98,2.75,-2.38,17.00,-5.50,50.50,53.650921,9.698441,3.60,0.35,12,3.514,0,29,-1,2,2
135159,-0.00,-0.05,1.01,7.75,-4.27,0.37,16.00,-9.50,55.50,53.650921,9.698441,3.60,0.35,12,3.510,1,30,-1,2,2
135259,0.00,-0.05,0.99,-0.92,0.37,-0.43,12.00,-7.50,57.50,53.650921,9.698441,3.60,0.35,12,3.504,0,44,-1,2,2
135368,0.01,-0.06,1.04,-12.08,2.99,1.04,16.00,-6.50,57.50,53.650921,9.698441,3.60,0.35,12,3.595,0,37,-2,2,2
135468,-0.00,0.00,1.04,5.37,-3.66,0.49,19.00,-6.50,61.50,53.650921,9.698441,3.60,0.35,12,3.61-2,1,9,-1,2,2
135568,0.03,0.02,1.01,1.16,-0.31,-1.71,21.00,-3.50,60.50,53.650921,9.698441,3.60,0.35,12,3.54-1,1,5,-1,2,2
135668,-0.00,-0.02,1.00,-0.73,0.31,-2.01,20.00,-5.50,52.50,53.650921,9.698441,3.60,0.35,12,3.511,0,18,-1,2,2
135768,0.01,0.01,0.99,-0.49,-0.12,-0.31,20.00,-4.50,57.50,53.650921,9.698441,3.60,0.00,12,3.580,0,11,-1,2,2
135868,0.10,0.12,0.97,-2.93,0.18,-8.91,19.00,-5.50,53.50,53.650921,9.698441,3.60,0.22,12,3.56-6,5,-1,-2,2,2
135968,0.06,0.06,1.04,2.56,-0.43,6.59,17.00,-7.50,55.50,53.650921,9.698441,3.60,0.22,12,3.57-4,3,11,-1,2,2
136068,0.01,0.01,1.00,-1.34,0.06,-0.12,19.00,-6.50,58.50,53.650921,9.698441,3.60,0.22,12,3.530,0,17,-1,2,2
136168,0.02,0.02,0.99,-26.18,-3.42,-0.85,16.00,-8.50,48.50,53.650921,9.698441,3.60,0.22,12,3.612,1,31,-2,2,2
136268,0.01,0.12,0.86,-20.81,-6.16,-3.36,21.00,-8.50,57.50,53.650921,9.698441,3.60,0.22,12,3.61-8,1,0,-1,2,2
136368,0.00,0.04,1.05,13.12,1.89,-0.37,23.00,-9.50,52.50,53.650921,9.698441,3.60,0.22,12,3.67-7,0,5,-1,2,2
136468,0.02,0.05,1.01,4.46,0.67,-1.65,22.00,-9.50,53.50,53.650921,9.698441,3.70,0.22,12,3.66-1,1,18,-1,2,2
136569,0.03,0.07,0.98,8.48,1.71,2.20,22.00,-8.50,55.50,53.650921,9.698441,3.70,0.04,12,3.61-4,1,10,-2,2,2
136669,0.01,0.03,1.01,1.22,0.12,0.06,20.00,-7.50,50.50,53.650921,9.698441,3.70,0.04,12,3.600,0,17,-1,2,2
136769,0.01,0.03,1.01,3.42,0.61,-2.44,18.00,-9.50,51.50,53.650921,9.698441,3.70,0.04,12,3.60-1,0,23,-1,2,2
136869,0.02,0.03,1.00,2.56,0.49,0.12,20.00,-10.50,54.50,53.650921,9.698441,3.70,0.04,12,3.64-1,0,24,-1,2,2
136969,0.02,0.03,0.96,8.42,0.85,2.26,23.00,-10.50,57.50,53.650921,9.698441,3.70,0.04,12,3.71-2,0,18,-1,2,2
137070,0.02,0.01,1.00,-0.12,-0.06,0.12,21.00,-10.50,49.50,53.650921,9.698441,3.70,0.04,12,3.660,1,26,-2,2,2
137170,0.01,0.01,0.98,-0.73,0.00,1.40,23.00,-12.50,57.50,53.650921,9.698441,3.70,0.04,12,3.680,0,27,-1,2,2
137270,0.01,0.00,1.00,3.36,0.31,1.10,21.00,-10.50,48.50,53.650921,9.698440,3.80,0.04,12,3.570,0,24,-2,2,2
137370,0.01,0.00,1.00,-0.73,-0.12,-0.06,21.00,-9.50,52.50,53.650921,9.698440,3.80,0.07,12,3.600,0,23,-1,2,2
137470,0.01,0.02,0.98,0.61,-0.06,0.00,22.00,-9.50,53.50,53.650921,9.698440,3.80,0.20,12,3.63-1,0,20,-1,2,2
137570,0.01,0.00,1.00,1.34,-0.06,0.06,20.00,-9.50,51.50,53.650921,9.698440,3.80,0.20,12,3.660,0,23,-1,2,2
137670,-0.01,-0.03,1.02,2.32,-0.06,2.56,23.00,-8.50,50.50,53.650921,9.698440,3.80,0.20,12,3.731,0,23,-1,2,2
137770,0.01,0.00,1.00,1.40,-0.06,-0.06,22.00,-10.50,57.50,53.650921,9.698440,3.80,0.20,12,3.670,0,24,-1,2,2
137870,0.01,0.00,1.00,1.10,0.00,0.18,16.00,-10.50,55.50,53.650921,9.698440,3.80,0.20,12,3.600,0,32,-1,2,2
137970,0.01,-0.01,1.00,1.16,0.06,0.73,22.00,-8.50,53.50,53.650921,9.698440,3.80,0.20,12,3.680,0,22,-1,2,2
138070,0.02,-0.00,1.00,3.78,0.00,-0.18,21.00,-8.50,55.50,53.650921,9.698440,3.80,0.20,12,3.670,1,20,-1,2,2
138170,0.01,-0.01,1.00,-0.06,-4.21,2.38,22.00,-9.50,56.50,53.650925,9.698440,3.90,0.04,12,3.610,1,24,-1,2,2
138270,0.06,0.06,0.90,18.74,-6.65,1.71,20.00,-12.50,54.50,53.650925,9.698440,3.90,0.15,12,3.61-5,4,17,-1,2,2
138370,-0.09,-0.18,1.14,18.37,-7.32,2.87,21.00,-8.50,54.50,53.650925,9.698440,3.90,0.15,12,3.628,-4,44,-2,2,2
138470,-0.01,-0.06,1.02,8.73,-3.97,0.49,21.00,-8.50,55.50,53.650925,9.698440,3.90,0.15,12,3.624,-1,32,-2,2,2
138570,-0.03,0.01,0.70,3.30,0.73,0.43,19.00,-9.50,54.50,53.650925,9.698440,3.90,0.15,12,3.660,-2,29,-2,2,2
138670,0.01,-0.02,0.99,-3.97,1.71,-0.67,19.00,-6.50,58.50,53.650925,9.698440,3.90,0.15,12,3.641,0,22,-1,2,2
138770,0.01,-0.02,0.99,-0.73,0.37,0.98,18.00,-6.50,55.50,53.650925,9.698440,3.90,0.15,12,3.690,0,21,-1,2,2
138870,0.01,-0.03,0.99,-0.92,0.55,0.67,15.00,-5.50,57.50,53.650925,9.698440,3.90,0.15,12,3.661,0,23,-1,2,2
138971,0.01,-0.05,1.00,-2.50,0.00,-0.92,21.00,-6.50,59.50,53.650925,9.698439,3.90,0.02,12,3.662,0,23,-1,2,2
139082,-0.00,-0.05,1.01,1.34,-0.43,2.38,20.00,-9.50,57.50,53.650925,9.698439,3.90,0.11,12,3.672,0,31,-2,2,2
139182,0.01,-0.04,1.00,-0.31,0.55,-0.49,20.00,-9.50,57.50,53.650925,9.698439,3.90,0.11,12,3.642,0,30,-1,2,2
139283,0.01,-0.04,0.99,0.31,0.31,-1.53,20.00,-6.50,51.50,53.650925,9.698439,3.90,0.11,12,3.622,0,22,-1,2,2
139383,0.01,-0.03,1.00,-2.20,0.73,-3.36,18.00,-6.50,56.50,53.650925,9.698439,3.90,0.11,12,3.631,0,23,-1,2,2
139484,0.01,-0.04,1.00,1.10,-0.37,0.24,15.00,-7.50,56.50,53.650925,9.698439,3.90,0.11,12,3.631,0,30,-1,2,2
139584,0.02,-0.04,0.99,1.59,-0.49,1.16,14.00,-5.50,56.50,53.650925,9.698439,3.90,0.11,12,3.601,1,26,-1,2,2
139684,0.01,-0.03,1.00,2.44,-0.98,0.49,20.00,-3.50,57.50,53.650925,9.698439,3.90,0.11,12,3.671,0,14,-1,2,2
139819,-0.00,-0.04,1.00,-0.18,-0.31,-0.18,19.00,-6.50,60.50,53.650925,9.698439,3.90,0.11,12,3.662,0,25,-2,2,2
139919,0.01,-0.03,1.00,-0.18,0.12,0.00,18.00,-8.50,56.50,53.650925,9.698439,3.90,0.11,12,3.681,0,29,-1,2,2
140020,0.01,-0.04,1.00,3.23,-1.28,1.46,19.00,-5.50,61.50,53.650925,9.698439,3.90,0.11,12,3.672,0,21,-1,2,2
140120,0.01,-0.05,1.00,3.30,-1.04,0.55,17.00,-5.50,61.50,53.650925,9.698439,4.10,0.07,12,3.602,0,25,-1,2,2
140220,0.02,-0.02,0.99,1.71,-0.43,0.79,21.00,-4.50,57.50,53.650925,9.698439,4.10,0.11,12,3.571,0,15,-1,2,2
140320,0.01,-0.03,0.99,0.55,-0.18,-0.31,19.00,-1.50,61.50,53.650925,9.698439,4.10,0.11,12,3.671,0,10,-1,2,2
140420,-0.00,-0.04,1.01,0.61,-0.18,0.18,19.00,-6.50,58.50,53.650925,9.698439,4.10,0.11,12,3.602,0,24,-1,2,2
140520,0.00,-0.05,1.00,0.00,-0.67,-1.40,20.00,-6.50,58.50,53.650925,9.698439,4.10,0.11,12,3.582,0,24,-1,2,2
140621,-0.00,-0.05,1.00,1.34,-0.37,-0.73,17.00,-5.50,59.50,53.650925,9.698439,4.10,0.11,12,3.602,0,25,-1,2,2
140721,-0.00,-0.07,1.00,-0.24,0.06,0.49,18.00,-3.50,54.50,53.650925,9.698439,4.10,0.11,12,3.644,0,22,-1,2,2
140821,-0.00,-0.05,1.02,0.06,0.00,0.85,19.00,-3.50,59.50,53.650925,9.698439,4.10,0.11,12,3.622,0,18,-1,2,2
140922,-0.00,-0.04,1.00,-0.06,0.18,0.06,20.00,-5.50,54.50,53.650925,9.698439,4.10,0.13,12,3.532,0,20,-1,2,2
141022,-0.00,-0.05,1.00,1.46,-0.31,-0.18,12.00,-6.50,59.50,53.650925,9.698439,4.10,0.13,12,3.622,0,37,-1,2,2
141126,-0.01,-0.06,0.99,-4.58,2.20,0.55,18.00,-5.50,58.50,53.650925,9.698439,4.10,0.13,12,3.544,0,29,-1,2,2
141226,-0.00,-0.04,1.01,1.04,-0.12,0.37,22.00,-5.50,54.50,53.650925,9.698439,4.10,0.13,12,3.621,0,18,-1,2,2
141327,-0.01,-0.06,0.99,1.53,-0.49,-2.50,18.00,-5.50,59.50,53.650925,9.698439,4.10,0.13,12,3.613,0,26,-2,2,2
141427,0.00,-0.07,1.00,0.55,-0.24,-0.37,18.00,-5.50,53.50,53.650925,9.698439,4.10,0.13,12,3.604,0,27,-1,2,2
141527,0.01,-0.04,0.99,0.06,-0.12,0.06,17.00,-3.50,57.50,53.650925,9.698439,4.10,0.13,12,3.542,0,18,-1,2,2
141627,0.00,-0.05,0.99,0.24,-0.06,0.24,12.00,-4.50,56.50,53.650925,9.698439,4.20,0.15,12,3.492,0,30,-1,2,2
141727,0.00,-0.05,0.99,0.43,0.00,1.22,17.00,-3.50,57.50,53.650925,9.698439,4.20,0.15,12,3.542,0,20,-1,2,2
141827,0.01,-0.04,1.01,0.61,-0.18,0.98,13.00,-2.50,56.50,53.650925,9.698439,4.20,0.15,12,3.562,0,19,-1,2,2
141927,0.01,-0.06,1.00,-0.37,0.12,-0.12,15.00,-5.50,52.50,53.650925,9.698439,4.20,0.15,12,3.453,0,29,-1,2,2
142033,0.00,-0.05,1.00,-0.37,0.43,-0.55,19.00,-5.50,57.50,53.650925,9.698439,4.20,0.15,12,3.553,0,23,-1,2,2
142133,0.00,-0.06,1.00,0.18,0.00,0.37,15.00,-5.50,55.50,53.650925,9.698439,4.20,0.15,12,3.453,0,29,-1,2,2
142233,-0.00,-0.06,1.00,-0.79,0.49,-0.37,17.00,-5.50,57.50,53.650925,9.698439,4.20,0.15,12,3.503,0,27,-1,2,2
142333,0.00,-0.05,1.00,0.06,-0.06,0.12,17.00,-5.50,57.50,53.650925,9.698439,4.20,0.15,12,3.633,0,26,-1,2,2
142433,-0.03,-0.07,0.99,-2.75,0.61,-0.43,11.00,-4.50,60.50,53.650925,9.698438,4.30,0.15,12,3.393,-1,43,-2,2,2
142533,0.00,-0.07,1.00,0.06,0.00,0.61,14.00,-5.50,52.50,53.650925,9.698438,4.30,0.24,12,3.594,0,33,-1,2,2
142633,-0.00,-0.07,0.99,0.06,0.18,-0.12,13.00,-5.50,65.50,53.650925,9.698438,4.30,0.24,12,3.643,0,37,-1,2,2
142733,0.00,-0.07,1.00,0.24,0.00,0.37,18.00,-1.50,58.50,53.650925,9.698438,4.30,0.24,12,3.503,0,16,-2,2,2
142833,0.00,-0.07,1.00,0.00,-0.49,-0.18,12.00,-4.50,58.50,53.650925,9.698438,4.30,0.24,12,3.534,0,35,-1,2,2
142933,0.00,-0.07,1.00,-0.43,-0.06,0.37,16.00,-3.50,53.50,53.650925,9.698438,4.30,0.24,12,3.614,0,24,-1,2,2
143033,0.00,-0.06,0.99,-1.10,-0.31,-0.31,18.00,-3.50,57.50,53.650925,9.698438,4.30,0.24,12,3.623,0,21,-1,2,2
143200,0.00,-0.07,1.00,-1.83,0.85,-0.06,17.00,-11.50,43.50,53.650925,9.698438,4.30,0.24,12,3.594,0,40,-1,2,2
143300,0.00,-0.07,1.00,0.55,-0.37,0.00,13.00,-9.50,40.50,53.650925,9.698438,4.30,0.24,12,3.563,0,43,-1,2,2
143400,0.00,-0.06,0.99,0.79,-0.49,0.00,17.00,-6.50,42.50,53.650925,9.698438,4.30,0.24,12,3.613,0,28,-1,2,2
143500,0.00,-0.06,1.00,-0.24,0.06,0.00,18.00,-8.50,41.50,53.650925,9.698438,4.30,0.24,12,3.613,0,31,-1,2,2
143600,0.00,-0.07,1.00,-0.18,0.06,0.00,19.00,-3.50,40.50,53.650925,9.698437,4.30,0.24,12,3.533,0,18,-1,2,2
143700,0.00,-0.07,1.00,0.18,-0.18,0.00,17.00,-5.50,39.50,53.650925,9.698437,4.30,0.06,12,3.633,0,25,-1,2,2
143800,0.00,-0.06,1.00,0.12,-0.12,-0.06,17.00,-6.50,41.50,53.650925,9.698437,4.30,0.06,12,3.613,0,28,-1,2,2
143900,0.00,-0.06,1.00,0.12,-0.12,0.00,18.00,-7.50,40.50,53.650925,9.698437,4.30,0.06,12,3.603,0,29,-1,2,2
144000,0.00,-0.06,1.00,0.06,-0.12,-0.06,13.00,-7.50,37.50,53.650925,9.698437,4.30,0.06,12,3.603,0,37,-1,2,2
144100,0.00,-0.06,1.00,0.00,0.00,0.00,19.00,-5.50,42.50,53.650925,9.698437,4.30,0.06,12,3.503,0,23,-1,2,2
144200,0.00,-0.07,1.00,0.00,0.00,0.00,16.00,-8.50,36.50,53.650925,9.698437,4.30,0.06,12,3.593,0,33,-1,2,2
144300,0.00,-0.06,1.00,0.00,-0.06,0.00,18.00,-6.50,37.50,53.650925,9.698437,4.30,0.06,12,3.643,0,26,-1,2,2
144400,0.00,-0.06,1.00,-0.24,-0.06,0.00,19.00,-6.50,39.50,53.650925,9.698437,4.40,0.56,12,3.563,0,25,-1,2,2
144500,0.00,-0.07,1.00,-0.06,-0.06,-0.06,17.00,-5.50,37.50,53.650925,9.698437,4.40,0.56,12,3.583,0,24,-1,2,2
144600,0.01,-0.06,1.00,0.12,-0.18,-0.06,20.00,-6.50,39.50,53.650925,9.698437,4.40,0.56,12,3.613,0,24,-1,2,2
144700,0.00,-0.06,1.00,0.12,-0.24,0.00,17.00,-6.50,39.50,53.650925,9.698437,4.40,0.56,12,3.623,0,27,-1,2,2
144800,0.00,-0.06,0.99,-0.61,0.12,-0.06,13.00,-6.50,41.50,53.650925,9.698437,4.40,0.56,12,3.503,0,34,-1,2,2
144900,0.00,-0.06,1.00,0.37,-0.18,0.00,20.00,-8.50,38.50,53.650925,9.698437,4.40,0.56,12,3.623,0,28,-1,2,2
145000,0.00,-0.07,1.00,0.06,-0.12,-0.12,16.00,-6.50,41.50,53.650925,9.698437,4.40,0.56,12,3.603,0,29,-1,2,2
145103,0.00,-0.06,1.00,0.06,-0.12,-0.06,18.00,-6.50,44.50,53.650928,9.698437,4.40,0.56,12,3.623,0,27,-1,2,2
145204,0.00,-0.06,1.00,0.12,-0.12,0.00,18.00,-5.50,42.50,53.650928,9.698437,4.40,0.06,12,3.603,0,24,-1,2,2
145304,0.00,-0.07,1.00,0.37,-0.24,0.00,19.00,-7.50,40.50,53.650928,9.698437,4.40,0.06,12,3.433,0,28,-1,2,2
145404,0.00,-0.07,1.00,0.00,0.00,0.00,17.00,-6.50,40.50,53.650928,9.698437,4.40,0.06,12,3.603,0,28,-1,2,2
145505,0.00,-0.06,1.00,-0.06,-0.06,0.00,17.00,-5.50,38.50,53.650928,9.698437,4.40,0.06,12,3.553,0,24,-2,2,2
145605,0.00,-0.06,1.00,0.12,-0.12,0.00,21.00,-5.50,48.50,53.650928,9.698437,4.40,0.06,12,3.603,0,22,-1,2,2
145707,0.00,-0.06,1.00,-0.12,0.06,0.00,17.00,-4.50,41.50,53.650928,9.698437,4.40,0.06,12,3.563,0,22,-1,2,2
145807,0.00,-0.07,1.00,0.06,-0.12,0.00,16.00,-6.50,44.50,53.650928,9.698437,4.40,0.06,12,3.613,0,30,-1,2,2
145907,0.00,-0.06,1.00,0.12,-0.06,-0.06,20.00,-8.50,40.50,53.650928,9.698437,4.40,0.06,12,3.543,0,28,-1,2,2
146008,0.00,-0.06,1.00,0.06,0.00,0.00,16.00,-4.50,42.50,53.650928,9.698437,4.50,0.06,12,3.603,0,24,-1,2,2
146108,0.00,-0.06,1.00,0.12,-0.06,-0.06,18.00,-5.50,40.50,53.650928,9.698437,4.50,0.65,12,3.613,0,24,-1,2,2
146208,0.00,-0.06,1.00,0.00,-0.06,0.00,18.00,-3.50,41.50,53.650928,9.698437,4.50,0.65,12,3.543,0,18,-1,2,2
146308,0.00,-0.06,1.00,0.00,-0.06,0.00,18.00,-5.50,40.50,53.650928,9.698437,4.50,0.65,12,3.553,0,24,-1,2,2
146408,0.00,-0.07,1.00,-0.06,-0.06,0.00,18.00,-6.50,43.50,53.650928,9.698437,4.50,0.65,12,3.573,0,27,-1,2,2
146508,0.00,-0.06,1.00,0.00,-0.06,0.00,18.00,-7.50,41.50,53.650928,9.698437,4.50,0.65,12,3.583,0,29,-1,2,2
146608,0.00,-0.06,1.00,0.00,-0.06,0.00,15.00,-6.50,43.50,53.650928,9.698437,4.50,0.65,12,3.623,0,31,-1,2,2
146708,0.00,-0.06,1.00,0.00,-0.06,-0.06,17.00,-6.50,37.50,53.650928,9.698437,4.50,0.65,12,3.583,0,27,-1,2,2
146808,0.00,-0.06,1.00,0.00,-0.06,0.00,13.00,-5.50,39.50,53.650928,9.698437,4.50,0.65,12,3.623,0,31,-1,2,2
146908,0.00,-0.06,1.00,0.00,-0.06,-0.06,17.00,-6.50,40.50,53.650928,9.698437,4.50,0.28,12,3.523,0,27,-1,2,2
147008,0.00,-0.06,1.00,0.06,-0.12,0.00,17.00,-5.50,41.50,53.650928,9.698437,4.50,0.28,12,3.613,0,25,-1,2,2
147108,0.00,-0.06,1.00,0.00,-0.12,0.12,18.00,-6.50,40.50,53.650928,9.698437,4.50,0.28,12,3.573,0,26,-1,2,2
147217,0.00,-0.07,1.00,0.06,-0.06,-0.06,20.00,-6.50,40.50,53.650928,9.698437,4.50,0.28,12,3.613,0,24,-1,2,2
147317,0.00,-0.07,1.00,0.06,-0.06,0.00,18.00,-6.50,38.50,53.650928,9.698437,4.50,0.28,12,3.603,0,26,-1,2,2
147417,0.00,-0.06,1.00,0.00,-0.12,-0.06,19.00,-4.50,40.50,53.650928,9.698437,4.50,0.28,12,3.543,0,20,-1,2,2
147552,0.00,-0.06,1.00,0.06,-0.06,0.00,19.00,-5.50,39.50,53.650928,9.698437,4.50,0.28,12,3.553,0,22,-2,2,2
147652,0.00,-0.06,1.00,0.06,-0.06,0.00,18.00,-5.50,38.50,53.650928,9.698437,4.50,0.28,12,3.523,0,23,-1,2,2
147752,0.00,-0.07,1.00,0.00,0.00,-0.06,20.00,-5.50,40.50,53.650928,9.698437,4.50,0.28,12,3.573,0,21,-1,2,2
147852,0.00,-0.06,1.00,0.00,-0.12,0.00,20.00,-5.50,41.50,53.650928,9.698436,4.60,0.28,12,3.613,0,21,-1,2,2
147952,0.00,-0.06,1.00,0.00,-0.06,0.06,20.00,-7.50,39.50,53.650928,9.698436,4.60,0.22,12,3.553,0,26,-1,2,2
148052,0.00,-0.07,1.00,-0.06,-0.12,0.06,19.00,-6.50,44.50,53.650928,9.698436,4.60,0.22,12,3.603,0,26,-1,2,2
148152,0.00,-0.06,1.00,0.00,-0.06,-0.06,18.00,-5.50,39.50,53.650928,9.698436,4.60,0.22,12,3.613,0,23,-1,2,2
148252,0.00,-0.06,1.00,-0.06,-0.06,0.00,21.00,-6.50,42.50,53.650928,9.698436,4.60,0.22,12,3.603,0,23,-1,2,2
148352,0.00,-0.06,1.00,0.00,-0.06,0.00,20.00,-7.50,40.50,53.650928,9.698436,4.60,0.22,12,3.553,0,26,-1,2,2
148452,0.00,-0.06,1.00,0.00,-0.12,0.00,21.00,-6.50,38.50,53.650928,9.698436,4.60,0.22,12,3.513,0,23,-1,2,2
148553,0.00,-0.07,1.00,0.00,-0.12,0.00,18.00,-5.50,38.50,53.650928,9.698436,4.60,0.22,12,3.613,0,23,-1,2,2
148653,0.00,-0.06,1.00,-0.06,0.00,-0.18,18.00,-5.50,43.50,53.650928,9.698436,4.50,0.09,12,3.583,0,24,-1,2,2
148753,0.00,-0.06,1.00,0.00,-0.06,0.00,18.00,-6.50,43.50,53.650928,9.698436,4.50,0.02,12,3.493,0,27,-1,2,2
148853,0.00,-0.06,1.00,0.06,-0.06,-0.06,18.00,-6.50,40.50,53.650928,9.698436,4.50,0.02,12,3.603,0,26,-1,2,2
148953,0.00,-0.06,1.00,0.00,-0.06,0.00,18.00,-6.50,39.50,53.650928,9.698436,4.50,0.02,12,3.523,0,26,-1,2,2
149060,0.00,-0.07,1.00,0.06,-0.12,0.06,18.00,-6.50,42.50,53.650928,9.698436,4.50,0.02,12,3.593,0,27,-1,2,2
149160,0.00,-0.06,1.00,0.00,-0.06,0.00,18.00,-3.50,38.50,53.650928,9.698436,4.50,0.02,12,3.583,0,18,-1,2,2
149260,0.00,-0.06,1.00,-0.06,0.00,-0.06,14.00,-5.50,39.50,53.650928,9.698436,4.50,0.02,12,3.503,0,29,-1,2,2
149360,0.00,-0.07,1.00,0.00,-0.12,-0.06,18.00,-4.50,37.50,53.650928,9.698436,4.50,0.02,12,3.563,0,21,-2,2,2
149460,0.00,-0.07,1.00,0.00,-0.06,0.00,19.00,-3.50,38.50,53.650928,9.698436,4.60,0.17,12,3.633,0,17,-1,2,2
149560,0.00,-0.07,1.00,-0.06,-0.12,0.06,16.00,-6.50,37.50,53.650928,9.698436,4.60,0.17,12,3.603,0,29,-1,2,2
149660,0.00,-0.06,1.00,-0.06,0.00,0.00,19.00,-5.50,40.50,53.650928,9.698436,4.60,0.17,12,3.553,0,22,-1,2,2
149770,0.00,-0.06,1.00,0.06,-0.06,-0.06,20.00,-6.50,41.50,53.650928,9.698436,4.60,0.17,12,3.603,0,24,-2,2,2
149870,0.00,-0.07,1.00,0.00,-0.06,-0.06,18.00,-5.50,40.50,53.650928,9.698436,4.60,0.17,12,3.603,0,24,-1,2,2
149970,0.00,-0.06,1.00,0.00,-0.06,-0.06,18.00,-4.50,37.50,53.650928,9.698436,4.60,0.17,12,3.563,0,20,-1,2,2
150070,0.00,-0.06,1.00,0.00,-0.06,0.00,16.00,-5.50,40.50,53.650928,9.698436,4.60,0.17,12,3.483,0,26,-2,2,2
150170,0.00,-0.06,1.00,0.00,-0.12,0.00,20.00,-5.50,43.50,53.650928,9.698436,4.50,0.17,12,3.583,0,22,-1,2,2
150271,0.00,-0.06,1.00,0.00,-0.06,0.00,21.00,-4.50,42.50,53.650928,9.698436,4.50,0.04,12,3.623,0,18,-1,2,2
150371,0.00,-0.07,1.00,0.00,-0.06,-0.06,19.00,-5.50,44.50,53.650928,9.698436,4.50,0.04,12,3.623,0,23,-1,2,2
150473,0.00,-0.06,1.00,0.06,-0.06,0.00,20.00,-6.50,39.50,53.650928,9.698436,4.50,0.04,12,3.603,0,24,-1,2,2
150573,0.00,-0.06,1.00,0.06,-0.06,0.00,14.00,-6.50,39.50,53.650928,9.698436,4.50,0.04,12,3.613,0,32,-2,2,2
150674,0.00,-0.06,1.00,0.00,-0.06,0.00,20.00,-5.50,36.50,53.650928,9.698436,4.50,0.04,12,3.433,0,21,-1,2,2
150774,0.00,-0.06,1.00,0.00,-0.06,-0.06,19.00,-5.50,44.50,53.650928,9.698436,4.50,0.04,12,3.643,0,23,-1,2,2
150886,0.00,-0.07,1.00,0.00,-0.06,-0.06,20.00,-5.50,34.50,53.650928,9.698436,4.50,0.04,12,3.613,0,21,-1,2,2
150986,0.00,-0.06,1.00,0.00,-0.06,0.00,14.00,-5.50,35.50,53.650928,9.698436,4.50,0.04,12,3.583,0,28,-1,2,2
151086,0.00,-0.06,1.00,0.00,-0.06,0.00,20.00,-5.50,41.50,53.650928,9.698436,4.50,0.04,12,3.633,0,22,-1,2,2
151186,0.00,-0.06,1.00,-0.06,-0.06,-0.06,14.00,-5.50,37.50,53.650928,9.698436,4.50,0.24,12,3.613,0,29,-1,2,2
151298,0.00,-0.06,1.00,0.00,-0.06,-0.06,19.00,-3.50,40.50,53.650928,9.698436,4.50,0.17,12,3.553,0,17,-1,2,2
151399,0.00,-0.06,1.00,0.00,-0.06,-0.06,17.00,-6.50,40.50,53.650928,9.698436,4.50,0.17,12,3.603,0,27,-1,2,2
151499,0.00,-0.06,1.00,0.06,-0.06,0.00,22.00,-4.50,41.50,53.650928,9.698436,4.50,0.17,12,3.623,0,17,-1,2,2
151599,0.00,-0.06,1.00,0.00,0.00,0.00,19.00,-4.50,35.50,53.650928,9.698436,4.50,0.17,12,3.583,0,19,-1,2,2
151699,0.00,-0.07,1.00,0.00,-0.12,-0.06,18.00,-4.50,39.50,53.650928,9.698436,4.50,0.17,12,3.633,0,21,-1,2,2
151799,0.00,-0.06,1.00,0.00,-0.06,-0.06,14.00,-5.50,40.50,53.650928,9.698436,4.50,0.17,12,3.603,0,29,-1,2,2
151899,0.00,-0.06,1.00,0.00,-0.06,0.00,18.00,-5.50,38.50,53.650928,9.698436,4.50,0.17,12,3.533,0,23,-1,2,2
151999,0.00,-0.07,1.00,0.00,-0.12,0.00,17.00,-5.50,36.50,53.650928,9.698436,4.50,0.17,12,3.533,0,24,-1,2,2
152100,0.00,-0.06,1.00,0.06,-0.06,-0.06,17.00,-3.50,40.50,53.650928,9.698436,4.50,0.13,12,3.613,0,19,-1,2,2
152200,0.00,-0.06,1.00,-0.06,0.00,0.00,17.00,-5.50,40.50,53.650928,9.698436,4.50,0.06,12,3.523,0,25,-1,2,2
152300,0.00,-0.06,1.00,0.00,0.00,0.00,19.00,-2.50,39.50,53.650928,9.698436,4.50,0.06,12,3.553,0,14,-1,2,2
152400,0.00,-0.06,1.00,-0.06,-0.06,-0.06,17.00,-2.50,43.50,53.650928,9.698436,4.50,0.06,12,3.623,0,17,-2,2,2
152500,0.00,-0.06,1.00,0.00,0.00,0.00,20.00,-3.50,43.50,53.650928,9.698436,4.50,0.06,12,3.543,0,17,-1,2,2
152600,0.00,-0.07,1.00,-0.12,-0.06,0.00,16.00,-3.50,43.50,53.650928,9.698436,4.50,0.06,12,3.583,0,21,-1,2,2
152700,-0.05,-0.06,0.99,0.73,0.18,-3.85,18.00,-1.50,43.50,53.650928,9.698436,4.50,0.06,12,3.603,-3,15,-1,2,2
152800,0.00,-0.07,1.00,-0.06,-0.24,-0.12,18.00,-2.50,40.50,53.650928,9.698436,4.50,0.06,12,3.513,0,16,-1,2,2
152900,0.00,-0.07,1.00,-0.18,-0.12,0.12,21.00,-3.50,42.50,53.650928,9.698436,4.50,0.09,12,3.633,0,16,-1,2,2
153001,0.00,-0.07,1.00,0.06,-0.06,0.06,16.00,-2.50,45.50,53.650928,9.698436,4.50,0.17,12,3.533,0,18,-1,2,2
153107,0.00,-0.07,1.00,0.06,-0.06,0.06,17.00,-3.50,45.50,53.650928,9.698436,4.50,0.17,12,3.493,0,20,-1,2,2
153207,0.00,-0.06,0.99,0.31,0.43,0.00,18.00,-5.50,41.50,53.650928,9.698436,4.50,0.17,12,3.563,0,23,-1,2,2
153316,-0.00,-0.05,1.00,-0.12,-0.12,-0.06,17.00,-3.50,48.50,53.650928,9.698436,4.50,0.17,12,3.593,0,20,-1,2,2
153416,0.00,-0.07,1.00,-0.49,-0.43,0.06,16.00,-3.50,42.50,53.650928,9.698436,4.50,0.17,12,3.543,0,21,-1,2,2
153516,-0.00,-0.06,0.99,0.24,-0.12,0.00,17.00,-3.50,46.50,53.650928,9.698436,4.50,0.17,12,3.593,0,20,-1,2,2
153616,0.00,-0.05,0.98,2.01,0.37,-0.55,14.00,-4.50,44.50,53.650928,9.698436,4.50,0.17,12,3.613,0,25,-1,2,2
153716,0.00,-0.06,1.01,0.24,0.00,-0.06,18.00,-2.50,44.50,53.650928,9.698436,4.50,0.17,12,3.613,0,16,-1,2,2
153816,0.00,-0.07,1.01,-1.04,-0.55,0.06,18.00,-3.50,40.50,53.650928,9.698436,4.50,0.17,12,3.533,0,18,-1,2,2
153917,-0.04,-0.05,0.98,-0.37,-0.24,0.79,17.00,-5.50,44.50,53.650928,9.698436,4.50,0.11,12,3.573,-2,27,-1,2,2
154017,0.02,-0.06,0.97,0.06,0.31,0.24,21.00,-3.50,47.50,53.650928,9.698436,4.50,0.11,12,3.523,0,16,-1,2,2
154117,0.00,-0.06,1.00,-0.55,-0.12,1.10,17.00,-3.50,42.50,53.650928,9.698436,4.50,0.11,12,3.603,0,19,-1,2,2
154222,0.00,-0.07,1.00,0.06,-0.06,0.67,19.00,-6.50,41.50,53.650928,9.698436,4.50,0.11,12,3.594,0,26,-1,2,2
154322,-0.00,-0.06,1.00,-0.12,-0.06,0.12,17.00,-5.50,42.50,53.650928,9.698436,4.50,0.11,12,3.563,0,25,-1,2,2
154422,0.00,-0.07,1.00,0.00,0.06,0.06,12.00,-3.50,48.50,53.650928,9.698436,4.50,0.11,12,3.623,0,28,-1,2,2
154522,0.01,-0.06,1.00,0.06,-0.12,-0.12,12.00,-3.50,48.50,53.650928,9.698436,4.50,0.11,12,3.623,0,27,-1,2,2
154623,0.00,-0.07,1.01,0.00,-0.06,0.06,18.00,-5.50,41.50,53.650928,9.698436,4.50,0.11,12,3.663,0,24,-1,2,2
154723,0.02,-0.06,1.00,-0.18,0.00,-1.10,17.00,-5.50,42.50,53.650928,9.698436,4.50,0.28,12,3.523,1,24,-1,2,2
154825,0.01,-0.05,1.00,0.06,0.06,0.37,16.00,-3.50,44.50,53.650928,9.698436,4.50,0.28,12,3.603,0,19,-1,2,2
154925,0.00,-0.06,0.99,0.24,-0.12,0.31,16.00,-3.50,44.50,53.650928,9.698436,4.50,0.28,12,3.603,0,20,-1,2,2
155025,-0.02,-0.06,0.98,1.40,-0.98,-1.34,15.00,-6.50,44.50,53.650928,9.698436,4.50,0.28,12,3.623,-1,32,-2,2,2
155125,0.01,-0.06,1.01,0.12,-0.24,0.67,13.00,-4.50,47.50,53.650928,9.698436,4.50,0.28,12,3.603,0,28,-1,2,2
155225,0.00,-0.06,1.00,-0.31,0.00,-0.49,14.00,-5.50,39.50,53.650928,9.698436,4.50,0.28,12,3.583,0,29,-2,2,2
155356,-0.00,-0.07,1.00,0.00,-0.24,0.06,13.00,-6.50,45.50,53.650928,9.698436,4.50,0.28,12,3.603,0,36,-1,2,2
155456,-0.01,-0.06,1.00,-0.12,0.06,0.00,14.00,-8.50,52.50,53.650928,9.698436,4.50,0.28,12,3.583,0,40,-1,2,2
155556,-0.00,-0.06,1.00,0.06,-0.06,-0.12,20.00,-5.50,46.50,53.650928,9.698436,4.50,0.28,12,3.523,0,22,-1,2,2
155656,0.00,-0.06,1.00,0.12,-0.06,0.24,18.00,-5.50,49.50,53.650928,9.698435,4.50,0.28,12,3.583,0,25,-1,2,2
155756,0.00,-0.06,1.00,-0.06,-0.06,-0.55,18.00,-5.50,47.50,53.650928,9.698435,4.50,0.13,12,3.503,0,24,-1,2,2
155856,0.01,-0.06,1.01,0.00,0.00,0.37,17.00,-5.50,47.50,53.650928,9.698435,4.50,0.13,12,3.563,0,25,-1,2,2
155956,0.01,-0.07,1.00,-0.18,-0.12,-1.16,17.00,-3.50,42.50,53.650928,9.698435,4.50,0.13,12,3.604,0,20,-1,2,2
156056,0.00,-0.07,1.00,0.12,-0.24,0.18,16.00,-6.50,44.50,53.650928,9.698435,4.50,0.13,12,3.583,0,30,-1,2,2
156156,0.01,-0.07,1.00,0.06,0.00,-0.12,18.00,-6.50,45.50,53.650928,9.698435,4.50,0.13,12,3.584,0,28,-1,2,2
156256,0.01,-0.07,1.00,0.06,-0.24,-0.06,15.00,-4.50,44.50,53.650928,9.698435,4.50,0.13,12,3.603,0,25,-1,2,2
156356,0.01,-0.07,1.00,0.06,0.00,-0.06,17.00,-5.50,45.50,53.650928,9.698435,4.50,0.13,12,3.593,0,26,-1,2,2
156456,0.00,-0.06,0.99,-0.18,-0.18,-0.24,16.00,-5.50,42.50,53.650928,9.698436,4.60,0.02,12,3.483,0,26,-1,2,2
156556,0.00,-0.07,1.00,0.12,-0.24,0.31,18.00,-6.50,47.50,53.650928,9.698436,4.60,0.09,12,3.604,0,28,-1,2,2
156656,0.00,-0.06,0.99,-0.06,-0.06,-0.37,18.00,-4.50,43.50,53.650928,9.698436,4.60,0.09,12,3.553,0,21,-1,2,2
156756,0.00,-0.07,1.00,-0.24,0.06,-0.31,17.00,-5.50,40.50,53.650928,9.698436,4.60,0.09,12,3.514,0,26,-1,2,2
156856,0.00,-0.06,1.00,-0.06,0.18,-0.06,15.00,-6.50,44.50,53.650928,9.698436,4.60,0.09,12,3.533,0,31,-1,2,2
156956,0.00,-0.07,1.00,0.00,0.00,0.31,18.00,-4.50,40.50,53.650928,9.698436,4.60,0.09,12,3.513,0,21,-1,2,2
157056,0.01,-0.06,1.00,0.12,-0.12,-0.24,20.00,-6.50,42.50,53.650928,9.698436,4.60,0.09,12,3.603,0,24,-1,2,2
157156,0.00,-0.07,1.00,-0.24,0.12,-0.18,17.00,-4.50,47.50,53.650928,9.698436,4.60,0.09,12,3.543,0,24,-1,2,2
157256,0.00,-0.07,1.00,0.12,-0.24,0.06,12.00,-4.50,47.50,53.650928,9.698436,4.70,0.09,12,3.623,0,32,-1,2,2
157384,-0.00,-0.06,1.00,-0.06,0.00,-0.18,22.00,-6.50,48.50,53.650928,9.698436,4.70,0.04,0,3.633,0,23,-1,2,2
157484,0.00,-0.07,1.01,0.00,0.00,0.37,21.00,-6.50,37.50,53.650928,9.698436,4.70,0.15,12,3.503,0,22,-1,2,2
157598,-0.00,-0.07,1.00,0.06,-0.18,-0.85,18.00,-3.50,44.50,53.650928,9.698436,4.70,0.13,12,3.554,0,20,-2,2,2
157698,0.00,-0.06,1.00,0.06,-0.12,-0.37,17.00,-5.50,43.50,53.650928,9.698436,4.70,0.15,12,3.613,0,24,-1,2,2
157798,0.01,-0.07,1.01,0.00,-0.06,-0.06,18.00,-5.50,42.50,53.650928,9.698436,4.70,0.15,12,3.614,0,24,-2,2,2
157898,0.01,-0.06,0.99,0.06,-0.06,-0.06,18.00,-4.50,48.50,53.650928,9.698436,4.70,0.15,12,3.613,0,22,-1,2,2
157998,0.01,-0.07,1.00,0.06,0.00,0.31,20.00,-6.50,49.50,53.650928,9.698436,4.70,0.15,12,3.483,0,25,-1,2,2
158098,0.00,-0.07,1.00,0.00,-0.06,0.00,17.00,-4.50,45.50,53.650928,9.698436,4.70,0.15,12,3.653,0,23,-1,2,2
158198,0.00,-0.07,1.00,0.00,-0.12,0.06,13.00,-3.50,48.50,53.650928,9.698436,4.70,0.15,12,3.503,0,26,-1,2,2
158298,0.00,-0.07,1.00,0.00,0.06,0.24,18.00,-6.50,47.50,53.650928,9.698436,4.70,0.15,12,3.493,0,27,-1,2,2
158398,-0.00,-0.07,1.00,0.37,-0.24,-0.06,18.00,-3.50,45.50,53.650928,9.698436,4.70,0.15,12,3.603,0,20,-1,2,2
158498,-0.00,-0.07,1.00,0.00,-0.12,-0.12,16.00,-6.50,46.50,53.650928,9.698436,4.70,0.20,12,3.633,0,31,-1,2,2
158598,-0.01,-0.06,1.00,-2.75,1.16,-0.24,17.00,-3.50,44.50,53.650928,9.698436,4.70,0.20,12,3.543,0,20,-1,2,2
158705,0.01,-0.06,0.99,0.00,-0.12,0.24,17.00,-4.50,46.50,53.650928,9.698436,4.70,0.20,12,3.533,0,22,-1,2,2
158805,0.01,-0.06,1.00,0.43,-0.24,-0.06,16.00,-5.50,47.50,53.650928,9.698436,4.70,0.20,12,3.483,0,27,-1,2,2
158905,-0.03,-0.04,0.95,3.72,-2.26,-1.53,16.00,-5.50,47.50,53.650928,9.698436,4.70,0.20,12,3.612,-1,27,-1,2,2
159005,0.00,-0.06,1.01,-0.37,-0.12,0.00,19.00,-4.50,44.50,53.650928,9.698436,4.70,0.20,12,3.543,0,20,-1,2,2
159105,0.00,-0.06,1.00,0.06,-0.12,0.00,20.00,-3.50,41.50,53.650928,9.698436,4.70,0.20,12,3.613,0,16,-1,2,2
159214,0.00,-0.07,1.00,0.06,-0.12,0.00,17.00,-6.50,37.50,53.650928,9.698436,4.70,0.20,12,3.533,0,27,-1,2,2
159314,0.00,-0.06,1.00,-0.06,-0.06,-0.06,17.00,-5.50,37.50,53.650928,9.698436,4.80,0.20,12,3.593,0,24,-1,2,2
159439,0.00,-0.06,1.00,0.06,-0.12,-0.06,21.00,-5.50,40.50,53.650928,9.698436,4.80,0.06,12,3.573,0,20,-1,2,2
159539,-0.00,-0.07,1.02,5.00,-2.62,-0.92,20.00,-4.50,38.50,53.650928,9.698436,4.80,0.06,12,3.634,0,19,-2,2,2
159639,0.00,-0.07,1.00,0.18,-0.12,0.06,18.00,-7.50,43.50,53.650928,9.698436,4.80,0.19,12,3.403,0,30,-2,2,2
159821,0.00,-0.07,1.00,0.06,-0.12,-0.06,20.00,-3.50,37.50,53.650928,9.698436,4.80,0.19,12,3.513,0,16,-1,2,2
159921,0.00,-0.07,1.01,-5.68,2.93,0.06,18.00,-5.50,37.50,53.650928,9.698436,4.80,0.19,12,3.494,0,24,-1,2,2
160021,0.00,-0.06,1.00,0.06,-0.12,-0.06,18.00,-4.50,40.50,53.650928,9.698436,4.80,0.19,12,3.643,0,20,-1,2,2
160121,0.01,-0.07,1.00,0.00,0.00,0.00,21.00,-6.50,45.50,53.650928,9.698436,4.80,0.19,12,3.573,0,24,-1,2,2
160221,0.01,-0.06,1.00,-0.06,-0.06,0.06,20.00,-4.50,40.50,53.650928,9.698436,4.70,0.19,12,3.613,0,19,-1,2,2
160321,0.00,-0.06,1.00,0.00,-0.06,-0.06,17.00,-7.50,39.50,53.650928,9.698437,4.70,0.31,12,3.443,0,30,-1,2,2
160421,0.00,-0.06,1.00,0.00,0.06,0.00,20.00,-5.50,44.50,53.650928,9.698437,4.70,0.31,12,3.633,0,22,-2,2,2
160521,0.00,-0.06,1.00,0.00,-0.12,0.06,18.00,-7.50,41.50,53.650928,9.698437,4.70,0.31,12,3.523,0,28,-1,2,2
160621,0.00,-0.07,1.00,0.00,-0.06,0.00,20.00,-5.50,42.50,53.650928,9.698437,4.70,0.31,12,3.623,0,22,-1,2,2
160722,0.01,-0.06,1.00,0.00,-0.06,0.00,19.00,-6.50,37.50,53.650928,9.698437,4.70,0.31,12,3.603,0,24,-1,2,2
160822,0.00,-0.06,1.00,0.00,-0.06,0.00,17.00,-8.50,41.50,53.650928,9.698437,4.70,0.31,12,3.613,0,32,-1,2,2
160922,0.00,-0.06,1.00,0.00,-0.12,0.00,19.00,-6.50,38.50,53.650928,9.698437,4.70,0.31,12,3.523,0,25,-2,2,2
161022,0.00,-0.06,1.00,0.06,-0.06,0.00,16.00,-6.50,40.50,53.650928,9.698436,4.80,0.31,12,3.653,0,29,-1,2,2
161122,0.00,-0.06,1.00,0.00,-0.12,0.00,15.00,-6.50,37.50,53.650928,9.698436,4.70,0.13,12,3.593,0,30,-1,2,2
161222,0.00,-0.06,1.00,0.00,-0.06,-0.06,14.00,-5.50,45.50,53.650928,9.698436,4.70,0.13,12,3.633,0,30,-1,2,2
161322,0.00,-0.06,1.00,0.06,-0.12,0.00,20.00,-5.50,44.50,53.650928,9.698436,4.70,0.13,12,3.643,0,22,-1,2,2
161430,0.00,-0.06,1.00,0.00,-0.06,0.00,15.00,-6.50,40.50,53.650928,9.698436,4.70,0.13,12,3.573,0,30,-1,2,2
161530,0.00,-0.06,1.00,0.00,-0.06,-0.06,17.00,-5.50,37.50,53.650928,9.698436,4.70,0.13,12,3.633,0,24,-2,2,2
161630,0.01,-0.06,1.00,0.00,-0.06,0.00,14.00,-7.50,42.50,53.650928,9.698436,4.70,0.15,12,3.623,0,35,-1,2,2
161730,0.00,-0.06,1.00,0.06,-0.12,-0.06,21.00,-5.50,40.50,53.650928,9.698436,4.70,0.15,12,3.543,0,20,-1,2,2
161830,0.00,-0.06,1.00,0.00,-0.06,0.00,19.00,-6.50,40.50,53.650928,9.698436,4.70,0.22,12,3.513,0,25,-1,2,2
161933,0.00,-0.06,1.00,0.00,-0.06,-0.06,19.00,-5.50,39.50,53.650928,9.698436,4.70,0.22,12,3.623,0,22,-1,2,2
162057,0.01,-0.07,1.00,0.06,-0.06,-0.06,19.00,-5.50,38.50,53.650928,9.698436,4.70,0.22,12,3.613,0,22,-1,2,2
162157,0.00,-0.06,1.00,0.00,-0.06,-0.06,21.00,-5.50,39.50,53.650928,9.698436,4.70,0.22,12,3.603,0,20,-1,2,2
162257,0.00,-0.06,1.00,0.00,-0.12,0.00,16.00,-5.50,42.50,53.650928,9.698436,4.70,0.15,12,3.573,0,26,-2,2,2
162357,0.00,-0.07,1.00,0.00,-0.06,-0.06,16.00,-7.50,36.50,53.650928,9.698436,4.70,0.15,12,3.523,0,31,-1,2,2
162457,0.00,-0.06,1.00,0.00,-0.12,-0.06,14.00,-8.50,39.50,53.650928,9.698436,4.70,0.15,12,3.613,0,37,-1,2,2
162557,0.00,-0.06,1.00,0.00,0.00,-0.06,16.00,-6.50,34.50,53.650928,9.698436,4.70,0.15,12,3.613,0,28,-2,2,2
162657,0.00,-0.07,1.00,0.00,-0.06,-0.06,20.00,-6.50,40.50,53.650928,9.698436,4.70,0.15,12,3.603,0,24,-1,2,2
162757,0.00,-0.06,1.00,-0.06,-0.06,0.00,21.00,-6.50,42.50,53.650928,9.698436,4.70,0.15,12,3.563,0,23,-1,2,2
162857,0.00,-0.06,1.00,0.00,-0.12,0.00,16.00,-8.50,46.50,53.650928,9.698436,4.70,0.15,12,3.583,0,35,-1,2,2
162957,0.00,-0.07,1.00,0.00,-0.06,-0.06,22.00,-9.50,43.50,53.650928,9.698436,4.70,0.15,12,3.503,0,29,-1,2,2
163057,0.00,-0.06,1.00,0.06,-0.06,0.00,20.00,-5.50,43.50,53.650928,9.698436,4.70,0.15,12,3.563,0,22,-2,2,2
163157,0.00,-0.06,1.00,0.06,-0.06,-0.06,18.00,-8.50,43.50,53.650928,9.698436,4.70,0.15,12,3.523,0,31,-1,2,2
163257,0.01,-0.06,1.00,0.06,-0.06,0.00,19.00,-7.50,44.50,53.650928,9.698436,4.70,0.15,12,3.503,0,28,-1,2,2
163357,0.00,-0.07,1.00,-0.18,0.12,0.06,20.00,-7.50,40.50,53.650928,9.698436,4.70,0.15,12,3.603,0,26,-2,2,2
163462,0.00,-0.06,1.00,0.49,-0.18,0.00,20.00,-5.50,49.50,53.650928,9.698436,4.70,0.15,12,3.643,0,22,-2,2,2
163562,0.00,-0.06,1.00,-0.49,0.24,0.00,17.00,-6.50,44.50,53.650928,9.698436,4.70,0.15,12,3.593,0,28,-1,2,2
163662,0.01,-0.06,1.00,-2.20,0.73,-0.06,18.00,-8.50,43.50,53.650928,9.698436,4.70,0.07,12,3.433,0,30,-1,2,2
163765,0.00,-0.06,1.00,0.73,0.12,-0.06,20.00,-6.50,40.50,53.650928,9.698436,4.70,0.11,12,3.603,0,23,-1,2,2
163865,0.00,-0.05,1.00,-0.85,0.18,-0.06,20.00,-7.50,47.50,53.650928,9.698436,4.70,0.11,12,3.592,0,26,-2,2,2
163965,0.01,-0.05,1.00,-0.73,0.18,0.00,16.00,-8.50,43.50,53.650928,9.698436,4.70,0.11,12,3.432,0,33,-1,2,2
164065,0.05,-0.04,1.05,1.83,-0.24,-0.12,16.00,-6.50,44.50,53.650928,9.698436,4.70,0.11,12,3.561,2,23,-2,2,2
164165,0.01,-0.12,1.04,5.55,-2.44,-0.31,19.00,-6.50,41.50,53.650928,9.698436,4.70,0.11,12,3.626,0,30,-1,2,2
164265,0.01,-0.06,1.00,0.00,-0.06,-0.06,18.00,-6.50,44.50,53.650928,9.698436,4.70,0.11,12,3.603,0,26,-1,2,2
164365,0.00,-0.06,1.00,0.06,-0.24,0.00,14.00,-6.50,43.50,53.650928,9.698436,4.70,0.11,12,3.583,0,33,-2,2,2
164465,0.00,-0.07,1.00,-0.18,0.00,0.98,18.00,-7.50,43.50,53.650928,9.698436,4.70,0.11,12,3.543,0,29,-1,2,2
164569,0.00,-0.07,1.00,0.18,-0.18,0.00,21.00,-8.50,40.50,53.650928,9.698436,4.70,0.11,12,3.543,0,27,-2,2,2
164669,0.00,-0.06,1.01,-0.18,0.18,0.18,20.00,-8.50,39.50,53.650928,9.698436,4.70,0.11,12,3.523,0,28,-1,2,2
164769,0.00,-0.06,1.00,0.31,-0.37,-0.24,20.00,-5.50,43.50,53.650928,9.698436,4.70,0.11,12,3.553,0,22,-1,2,2
164869,-0.00,-0.06,1.00,-0.24,-0.06,-1.65,19.00,-5.50,49.50,53.650928,9.698436,4.70,0.11,12,3.553,0,24,-1,2,2
164970,0.01,-0.06,1.00,0.00,0.00,-0.12,19.00,-7.50,45.50,53.650928,9.698436,4.70,0.11,12,3.603,0,28,-1,2,2
165070,0.00,-0.08,0.99,-0.18,0.12,-0.67,19.00,-8.50,41.50,53.650928,9.698437,4.70,0.20,12,3.524,0,31,-1,2,2
165170,0.01,-0.07,1.00,0.43,-0.37,0.43,19.00,-9.50,45.50,53.650928,9.698436,4.70,0.48,12,3.554,0,33,-1,2,2
165270,0.01,-0.05,0.99,-0.24,0.12,-0.12,17.00,-7.50,48.50,53.650928,9.698436,4.70,0.48,12,3.582,0,29,-1,2,2
165370,0.02,-0.06,1.00,0.92,-0.18,0.92,17.00,-8.50,40.50,53.650928,9.698436,4.70,0.48,12,3.603,1,31,-1,2,2
165471,-0.00,-0.06,1.00,0.24,-0.24,-0.06,18.00,-7.50,47.50,53.650928,9.698436,4.70,0.48,12,3.623,0,29,-2,2,2
165571,0.00,-0.07,1.00,-0.12,0.06,-0.18,18.00,-5.50,46.50,53.650928,9.698436,4.70,0.48,12,3.634,0,26,-1,2,2
165671,0.01,-0.05,0.99,-0.12,-0.06,-0.12,16.00,-5.50,47.50,53.650928,9.698436,4.70,0.48,12,3.673,0,26,-1,2,2
165771,0.01,-0.06,1.00,0.37,-0.12,0.06,19.00,-6.50,46.50,53.650928,9.698436,4.70,0.48,12,3.423,0,25,-1,2,2
165871,0.00,-0.06,1.00,0.06,-0.12,-0.12,21.00,-9.50,47.50,53.650928,9.698437,4.60,0.48,12,3.613,0,29,-2,2,2
165971,0.00,-0.06,1.00,-0.12,-0.18,0.49,19.00,-5.50,45.50,53.650928,9.698437,4.60,0.20,12,3.663,0,23,-1,2,2
166071,0.00,-0.06,1.00,0.12,-0.12,0.12,18.00,-7.50,46.50,53.650928,9.698437,4.60,0.20,12,3.643,0,29,-2,2,2
166171,-0.00,-0.07,1.02,0.06,-0.06,0.06,21.00,-7.50,42.50,53.650928,9.698437,4.60,0.20,12,3.653,0,26,-1,2,2
166271,-0.00,-0.07,1.00,-0.12,-0.06,-0.43,19.00,-8.50,47.50,53.650928,9.698437,4.60,0.20,12,3.674,0,32,-1,2,2
166371,0.00,-0.06,1.00,-0.06,-0.06,-0.12,15.00,-5.50,47.50,53.650928,9.698437,4.60,0.20,12,3.633,0,28,-2,2,2
166491,0.01,-0.06,1.00,0.31,-0.12,0.00,21.00,-6.50,42.50,53.650928,9.698437,4.60,0.20,12,3.573,0,22,-1,2,2
166591,0.00,-0.06,1.00,0.12,-0.18,-0.06,20.00,-6.50,50.50,53.650928,9.698437,4.60,0.20,12,3.603,0,25,-1,2,2
166691,0.00,-0.06,1.00,-0.31,0.12,-0.06,21.00,-8.50,41.50,53.650928,9.698437,4.60,0.20,12,3.653,0,27,-1,2,2
166791,0.01,-0.06,1.00,0.06,-0.18,-0.37,21.00,-6.50,47.50,53.650928,9.698437,4.60,0.20,12,3.643,0,23,-1,2,2
166891,0.01,-0.06,1.00,-0.18,0.00,-0.31,17.00,-4.50,47.50,53.650928,9.698437,4.60,0.04,12,3.643,0,22,-1,2,2
166991,0.01,-0.07,1.00,0.18,-0.12,0.43,14.00,-6.50,47.50,53.650928,9.698437,4.60,0.04,12,3.563,0,34,-1,2,2
167095,0.00,-0.06,0.99,0.00,0.00,-0.79,16.00,-7.50,40.50,53.650928,9.698437,4.60,0.04,12,3.593,0,32,-1,2,2
167195,0.00,-0.06,1.00,0.37,0.06,0.61,21.00,-7.50,45.50,53.650928,9.698437,4.60,0.04,12,3.553,0,25,-2,2,2
167295,0.00,-0.06,1.00,-0.12,-0.06,0.12,18.00,-8.50,40.50,53.650928,9.698437,4.60,0.04,12,3.523,0,31,-1,2,2
167395,0.01,-0.06,1.00,-0.12,0.06,-0.06,22.00,-7.50,45.50,53.650928,9.698437,4.60,0.04,12,3.583,0,24,-1,2,2
167521,0.01,-0.07,1.00,-0.12,0.12,-0.18,17.00,-4.50,44.50,53.650928,9.698437,4.60,0.04,12,3.624,0,23,-1,2,2
167621,0.01,-0.06,0.99,-0.06,0.12,-0.31,19.00,-6.50,42.50,53.650928,9.698437,4.60,0.04,12,3.613,0,24,-1,2,2
167721,0.01,-0.07,1.00,-0.06,0.12,-0.18,16.00,-6.50,44.50,53.650928,9.698437,4.60,0.04,12,3.503,0,30,-1,2,2
167821,0.01,-0.06,1.00,-0.31,0.12,0.06,17.00,-6.50,39.50,53.650928,9.698437,4.60,0.04,12,3.493,0,26,-1,2,2
167921,0.01,-0.06,0.99,-0.06,-0.12,0.31,17.00,-6.50,45.50,53.650928,9.698437,4.60,0.02,12,3.553,0,28,-1,2,2
168021,0.01,-0.06,1.00,-0.24,0.18,0.79,19.00,-6.50,44.50,53.650928,9.698437,4.60,0.02,12,3.633,0,25,-1,2,2
168121,0.01,-0.06,0.98,0.37,-0.31,0.18,17.00,-5.50,47.50,53.650928,9.698437,4.60,0.02,12,3.633,0,25,-1,2,2
168221,0.00,-0.06,1.00,0.12,0.18,0.79,18.00,-5.50,49.50,53.650928,9.698437,4.60,0.02,12,3.603,0,25,-1,2,2
168323,0.00,-0.07,1.00,0.06,-0.06,-0.55,13.00,-7.50,40.50,53.650928,9.698437,4.60,0.02,12,3.623,0,37,-1,2,2
168423,0.00,-0.07,1.00,0.18,-0.12,0.73,18.00,-5.50,46.50,53.650928,9.698437,4.60,0.02,12,3.644,0,26,-1,2,2
168523,0.00,-0.07,1.00,0.18,-0.18,-0.06,19.00,-8.50,46.50,53.650928,9.698437,4.60,0.02,12,3.563,0,30,-1,2,2
168623,0.01,-0.06,1.00,0.00,0.06,0.00,17.00,-5.50,42.50,53.650928,9.698437,4.60,0.02,12,3.643,0,24,-1,2,2
168723,0.01,-0.07,1.00,-0.06,0.12,0.12,16.00,-5.50,44.50,53.650928,9.698437,4.60,0.02,12,3.613,0,27,-1,2,2
168823,0.01,-0.06,1.00,0.31,-0.06,0.18,19.00,-5.50,45.50,53.650928,9.698437,4.60,0.35,12,3.633,0,22,-1,2,2
168924,0.01,-0.07,1.00,0.24,-0.18,0.00,19.00,-4.50,49.50,53.650928,9.698437,4.60,0.35,12,3.693,0,21,-1,2,2
169024,0.01,-0.06,1.00,-0.12,0.00,0.00,18.00,-4.50,43.50,53.650928,9.698437,4.60,0.35,12,3.623,0,21,-2,2,2
169124,0.01,-0.06,1.00,0.00,0.00,0.12,18.00,-6.50,47.50,53.650928,9.698437,4.60,0.35,12,3.633,0,26,-1,2,2
169224,0.00,-0.07,1.01,-0.06,0.06,-0.12,20.00,-6.50,40.50,53.650928,9.698437,4.60,0.35,12,3.643,0,24,-1,2,2
169336,0.00,-0.06,1.00,-0.18,-0.06,0.43,20.00,-6.50,44.50,53.650928,9.698437,4.60,0.35,12,3.443,0,24,-1,2,2
169436,0.00,-0.07,1.00,0.00,0.00,0.06,21.00,-6.50,43.50,53.650928,9.698437,4.60,0.35,12,3.583,0,23,-2,2,2
169543,0.01,-0.06,0.99,-0.12,0.06,-0.18,17.00,-6.50,44.50,53.650928,9.698437,4.60,0.35,12,3.613,0,28,-1,2,2
169643,0.01,-0.06,1.00,0.00,0.00,0.12,18.00,-5.50,45.50,53.650928,9.698437,4.50,0.35,12,3.613,0,24,-2,2,2
169743,0.00,-0.06,1.01,-0.12,0.06,0.49,19.00,-5.50,42.50,53.650928,9.698437,4.50,0.15,12,3.553,0,23,-1,2,2
169879,0.00,-0.06,1.00,0.06,-0.31,-0.49,19.00,-6.50,42.50,53.650928,9.698437,4.50,0.11,12,3.603,0,25,-1,2,2
169979,0.00,-0.06,1.00,-0.12,-0.12,-0.06,21.00,-7.50,42.50,53.650928,9.698437,4.50,0.11,12,3.613,0,25,-1,2,2
170079,0.01,-0.06,1.00,0.06,0.00,0.00,18.00,-3.50,43.50,53.650928,9.698437,4.50,0.35,12,3.613,0,18,-1,2,2
170179,0.01,-0.06,1.00,-0.06,-0.12,-0.06,17.00,-5.50,48.50,53.650928,9.698437,4.50,0.35,12,3.623,0,25,-2,2,2
170279,0.01,-0.06,1.00,-0.06,-0.12,-0.06,18.00,-7.50,43.50,53.650928,9.698437,4.50,0.35,12,3.643,0,28,-1,2,2
170379,0.01,-0.06,1.01,0.12,-0.24,-0.24,17.00,-7.50,45.50,53.650928,9.698437,4.50,0.35,12,3.513,0,30,-1,2,2
170480,-0.00,-0.06,0.99,0.00,0.37,0.37,17.00,-5.50,49.50,53.650928,9.698437,4.50,0.35,12,3.543,0,26,-1,2,2
170580,0.01,-0.06,0.99,0.24,-0.12,0.00,18.00,-9.50,40.50,53.650928,9.698437,4.50,0.35,12,3.583,0,32,-1,2,2
170680,0.00,-0.06,0.99,0.12,-0.12,0.00,20.00,-6.50,46.50,53.650928,9.698437,4.50,0.35,12,3.543,0,25,-1,2,2
170783,0.00,-0.07,1.00,-0.06,-0.12,0.06,21.00,-7.50,44.50,53.650928,9.698437,4.50,0.35,12,3.613,0,26,-2,2,2
170883,0.00,-0.07,1.00,-0.06,0.00,0.18,16.00,-6.50,45.50,53.650928,9.698437,4.40,0.26,12,3.663,0,30,-1,2,2
170989,0.01,-0.06,1.00,0.00,-0.06,-0.06,18.00,-5.50,40.50,53.650928,9.698437,4.40,0.24,12,3.613,0,23,-1,2,2
171089,0.00,-0.06,1.00,-0.06,-0.12,0.06,16.00,-6.50,49.50,53.650928,9.698437,4.40,0.17,12,3.633,0,30,-1,2,2
171189,0.00,-0.06,1.00,0.24,0.00,0.18,18.00,-4.50,50.50,53.650928,9.698437,4.40,0.17,12,3.543,0,22,-1,2,2
171289,0.01,-0.06,1.00,0.12,-0.12,0.06,19.00,-5.50,45.50,53.650928,9.698437,4.40,0.17,12,3.633,0,22,-1,2,2
171389,0.01,-0.06,1.00,0.12,-0.12,0.00,19.00,-5.50,44.50,53.650928,9.698437,4.40,0.17,12,3.603,0,23,-2,2,2
171489,0.00,-0.06,1.00,0.06,-0.06,0.24,14.00,-6.50,51.50,53.650928,9.698437,4.40,0.17,12,3.563,0,34,-1,2,2
171602,0.00,-0.06,1.00,0.06,0.00,0.18,18.00,-4.50,51.50,53.650928,9.698437,4.40,0.17,12,3.673,0,22,-1,2,2
171702,0.00,-0.06,1.00,0.06,-0.12,-0.06,18.00,-5.50,50.50,53.650928,9.698437,4.40,0.17,12,3.553,0,25,-1,2,2
171802,0.01,-0.06,0.99,-0.12,0.00,0.00,17.00,-5.50,48.50,53.650928,9.698437,4.40,0.17,12,3.633,0,26,-1,2,2
171902,0.00,-0.07,0.99,0.00,-0.06,-0.55,18.00,-7.50,46.50,53.650928,9.698437,4.40,0.26,12,3.483,0,30,-1,2,2
172002,-0.00,-0.06,0.99,0.06,-0.18,0.00,18.00,-6.50,49.50,53.650928,9.698437,4.40,0.26,12,3.643,0,28,-1,2,2
172102,0.00,-0.06,0.99,0.00,-0.06,0.12,17.00,-4.50,44.50,53.650928,9.698437,4.40,0.26,12,3.593,0,23,-1,2,2
172202,0.00,-0.07,1.00,0.00,-0.18,-0.31,20.00,-6.50,46.50,53.650928,9.698437,4.40,0.26,12,3.503,0,25,-1,2,2
172302,0.01,-0.06,0.99,-0.06,-0.06,-0.12,18.00,-5.50,45.50,53.650928,9.698437,4.40,0.26,12,3.653,0,24,-1,2,2
172402,0.01,-0.06,1.00,-0.18,0.06,-0.12,18.00,-6.50,43.50,53.650928,9.698437,4.40,0.26,12,3.553,0,26,-1,2,2
172502,0.01,-0.06,1.00,-0.37,0.00,0.06,18.00,-6.50,44.50,53.650928,9.698437,4.40,0.04,12,3.643,0,27,-1,2,2
172602,0.01,-0.06,1.00,-0.31,-0.06,0.00,19.00,-5.50,42.50,53.650928,9.698437,4.40,0.04,12,3.643,0,22,-1,2,2
172702,0.01,-0.06,1.00,-0.61,0.24,-0.06,16.00,-5.50,45.50,53.650928,9.698437,4.40,0.04,12,3.643,0,26,-1,2,2
172802,0.01,-0.06,1.00,-1.34,0.61,-0.18,19.00,-6.50,48.50,53.650928,9.698437,4.40,0.04,12,3.633,0,26,-1,2,2
172903,0.01,-0.06,1.00,-0.12,0.00,0.12,19.00,-5.50,44.50,53.650928,9.698437,4.40,0.04,12,3.563,0,23,-2,2,2
173003,0.01,-0.06,1.00,0.00,-0.18,-0.31,20.00,-6.50,44.50,53.650928,9.698437,4.40,0.04,12,3.653,0,24,-2,2,2
173103,0.01,-0.07,1.00,0.12,-0.18,0.12,18.00,-5.50,44.50,53.650928,9.698437,4.40,0.04,12,3.653,0,24,-1,2,2
173221,0.01,-0.06,1.00,-0.18,0.06,0.00,14.00,-4.50,47.50,53.650928,9.698437,4.30,0.04,12,3.583,0,26,-1,2,2
173321,0.01,-0.06,1.00,-0.31,0.00,-0.12,18.00,-7.50,49.50,53.650928,9.698437,4.30,0.04,12,3.533,0,29,-1,2,2
173421,0.01,-0.05,1.00,-0.43,0.18,0.06,17.00,-6.50,45.50,53.650925,9.698437,4.30,0.28,12,3.533,0,27,-1,2,2
173521,0.01,-0.05,1.00,-0.24,0.06,0.06,19.00,-6.50,45.50,53.650925,9.698437,4.30,0.28,12,3.643,0,24,-1,2,2
173629,0.01,-0.06,1.00,-0.31,0.06,0.00,20.00,-7.50,44.50,53.650925,9.698437,4.30,0.28,12,3.553,0,26,-1,2,2
173729,0.01,-0.06,0.99,-0.67,0.24,-0.06,19.00,-6.50,45.50,53.650925,9.698437,4.30,0.28,12,3.593,0,25,-1,2,2
173829,0.01,-0.05,1.00,-0.98,0.37,0.06,20.00,-7.50,42.50,53.650925,9.698437,4.30,0.28,12,3.633,0,25,-1,2,2
173929,0.01,-0.06,1.00,-0.31,0.00,0.06,19.00,-5.50,47.50,53.650925,9.698437,4.30,0.28,12,3.613,0,22,-1,2,2
174029,0.01,-0.05,1.00,-0.24,0.00,-0.06,19.00,-5.50,49.50,53.650925,9.698437,4.30,0.28,12,3.573,0,22,-1,2,2
174129,0.01,-0.05,1.00,-0.06,-0.12,-0.06,17.00,-5.50,41.50,53.650925,9.698437,4.30,0.28,12,3.642,0,23,-1,2,2
174229,0.01,-0.05,0.99,-0.24,-0.12,-0.06,12.00,-6.50,42.50,53.650928,9.698437,4.30,0.28,12,3.452,0,34,-1,2,2
174329,0.01,-0.05,1.00,-0.43,0.06,-0.06,20.00,-7.50,43.50,53.650928,9.698437,4.30,0.07,12,3.592,0,24,-1,2,2
174429,0.01,-0.05,1.00,-0.12,-0.06,0.06,18.00,-6.50,49.50,53.650928,9.698437,4.30,0.07,12,3.633,0,26,-1,2,2
174531,0.01,-0.05,1.00,-0.18,0.00,0.00,19.00,-5.50,49.50,53.650928,9.698437,4.30,0.07,12,3.673,0,22,-1,2,2
174631,0.02,-0.00,0.95,0.31,-0.24,0.06,18.00,-6.50,42.50,53.650928,9.698437,4.30,0.07,12,3.520,1,19,-1,2,2
174731,0.01,-0.05,1.00,0.06,-0.18,-0.12,21.00,-6.50,46.50,53.650928,9.698437,4.30,0.07,12,3.602,0,22,-2,2,2
174831,0.01,-0.05,1.00,0.00,-0.06,0.00,20.00,-6.50,45.50,53.650928,9.698437,4.30,0.07,12,3.552,0,22,-1,2,2
174931,0.01,-0.05,1.00,0.12,-0.12,0.00,17.00,-4.50,47.50,53.650928,9.698437,4.30,0.07,12,3.632,0,21,-1,2,2
175031,0.01,-0.05,1.00,0.06,0.00,0.00,21.00,-6.50,47.50,53.650928,9.698437,4.30,0.07,12,3.622,0,22,-1,2,2
175131,0.01,-0.05,1.00,0.00,-0.06,0.00,20.00,-5.50,48.50,53.650928,9.698437,4.30,0.15,12,3.632,0,20,-1,2,2
175231,0.01,-0.05,1.00,-0.06,-0.06,0.06,22.00,-6.50,41.50,53.650928,9.698437,4.30,0.46,12,3.472,0,20,-1,2,2
175331,0.01,-0.05,1.00,-0.06,0.00,0.00,16.00,-6.50,42.50,53.650928,9.698437,4.30,0.46,12,3.612,0,27,-2,2,2
175433,0.01,-0.05,1.00,-0.06,0.00,-0.12,19.00,-6.50,45.50,53.650928,9.698437,4.30,0.46,12,3.612,0,23,-1,2,2
175533,0.01,-0.05,1.00,0.06,-0.12,0.00,15.00,-5.50,47.50,53.650928,9.698437,4.30,0.46,12,3.622,0,26,-1,2,2
175635,0.01,-0.05,1.00,0.00,-0.06,0.00,16.00,-6.50,45.50,53.650928,9.698437,4.30,0.35,12,3.412,0,27,-1,2,2
175737,0.01,-0.05,1.00,0.06,-0.06,-0.06,21.00,-8.50,46.50,53.650928,9.698437,4.30,0.35,12,3.542,0,26,-1,2,2
175837,0.01,-0.05,1.00,0.00,-0.12,0.00,16.00,-5.50,43.50,53.650928,9.698437,4.40,0.35,12,3.582,0,24,-1,2,2
175937,0.01,-0.05,1.00,0.00,0.00,0.00,18.00,-5.50,45.50,53.650928,9.698437,4.40,0.30,12,3.622,0,22,-1,2,2
176037,0.01,-0.05,1.00,0.00,0.00,-0.06,18.00,-5.50,45.50,53.650928,9.698437,4.40,0.30,12,3.632,0,22,-1,2,2
176137,0.01,-0.05,1.00,0.00,-0.06,0.00,17.00,-4.50,44.50,53.650928,9.698437,4.30,0.30,12,3.512,0,20,-1,2,2
176237,0.01,-0.05,1.00,-0.06,-0.06,-0.06,20.00,-6.50,48.50,53.650928,9.698437,4.30,0.59,12,3.442,0,23,-2,2,2
176341,0.01,-0.05,1.00,-0.06,0.00,0.00,20.00,-6.50,41.50,53.650928,9.698437,4.30,0.59,12,3.592,0,22,-2,2,2
176441,0.01,-0.05,1.00,0.00,-0.06,-0.06,18.00,-6.50,40.50,53.650928,9.698437,4.30,0.59,12,3.522,0,24,-1,2,2
176572,0.01,-0.05,1.00,-0.06,0.00,0.00,14.00,-5.50,45.50,53.650928,9.698437,4.40,0.59,12,3.472,0,27,-2,2,2
176672,0.01,-0.05,1.00,-0.06,-0.06,0.00,17.00,-5.50,45.50,53.650928,9.698437,4.40,0.59,12,3.542,0,23,-2,2,2
176773,0.01,-0.05,1.00,-0.24,0.06,0.06,20.00,-6.50,42.50,53.650928,9.698437,4.40,0.59,12,3.632,0,22,-2,2,2
176873,0.01,-0.05,1.00,-0.18,0.06,0.00,18.00,-6.50,44.50,53.650925,9.698437,4.40,0.22,12,3.532,0,24,-1,2,2
176973,0.01,-0.05,1.00,-0.18,0.00,0.06,17.00,-8.50,45.50,53.650925,9.698437,4.40,0.22,12,3.572,0,31,-1,2,2
177073,0.01,-0.05,1.00,-0.18,0.00,-0.18,21.00,-6.50,40.50,53.650925,9.698437,4.40,0.22,12,3.512,0,21,-1,2,2
177173,0.01,-0.04,1.00,0.00,-0.12,-0.12,21.00,-6.50,46.50,53.650925,9.698437,4.40,0.22,12,3.592,0,21,-1,2,2
177273,0.01,-0.05,1.00,-0.31,0.06,0.00,20.00,-5.50,46.50,53.650925,9.698437,4.40,0.22,12,3.632,0,20,-1,2,2
177373,0.01,-0.05,1.00,-0.24,0.00,0.00,21.00,-5.50,49.50,53.650925,9.698437,4.40,0.22,12,3.612,0,19,-1,2,2
177473,0.01,-0.04,1.00,-0.06,-0.12,0.06,20.00,-6.50,45.50,53.650925,9.698437,4.40,0.22,12,3.602,0,22,-1,2,2
177573,0.01,-0.05,1.00,-0.12,-0.06,-0.06,18.00,-5.50,41.50,53.650928,9.698437,4.30,0.22,12,3.592,0,21,-1,2,2
177718,0.01,-0.04,0.99,-0.67,0.24,0.00,20.00,-4.50,49.50,53.650928,9.698437,4.30,0.06,12,3.442,0,17,-2,2,2
177818,0.01,-0.04,0.99,-0.37,0.00,0.06,20.00,-6.50,49.50,53.650928,9.698437,4.30,0.06,12,3.562,0,22,-1,2,2
177918,0.01,-0.05,1.00,-0.24,0.06,0.00,16.00,-4.50,46.50,53.650928,9.698437,4.30,0.06,12,3.632,0,22,-2,2,2
178018,0.02,-0.02,0.96,-0.12,-0.18,-0.12,21.00,-6.50,45.50,53.650928,9.698437,4.30,0.17,12,3.650,1,18,-2,2,2
178118,0.02,-0.04,1.00,0.00,-0.06,0.06,21.00,-6.50,44.50,53.650928,9.698437,4.30,0.17,12,3.572,0,20,-2,2,2
178218,0.02,-0.04,0.99,0.00,-0.06,0.00,19.00,-7.50,42.50,53.650928,9.698437,4.30,0.17,12,3.422,0,24,-1,2,2
178318,0.01,-0.04,1.00,0.12,-0.12,-0.06,21.00,-5.50,44.50,53.650928,9.698437,4.30,0.17,12,3.622,0,19,-1,2,2
178418,0.01,-0.04,1.00,-0.18,0.00,-0.12,21.00,-7.50,47.50,53.650928,9.698437,4.30,0.17,12,3.562,0,23,-1,2,2
178518,0.01,-0.04,1.00,0.00,-0.12,0.12,18.00,-4.50,42.50,53.650928,9.698437,4.30,0.17,12,3.632,0,18,-1,2,2
178618,0.01,-0.04,1.00,-0.24,0.00,-0.12,20.00,-6.50,49.50,53.650928,9.698437,4.30,0.17,12,3.632,0,22,-1,2,2
178718,0.02,-0.04,1.00,-0.12,-0.06,-0.06,21.00,-6.50,44.50,53.650928,9.698437,4.40,0.09,12,3.642,0,20,-1,2,2
178818,0.01,-0.04,1.00,-0.12,0.06,-0.06,19.00,-7.50,48.50,53.650928,9.698437,4.40,0.20,12,3.612,0,25,-1,2,2
178918,0.02,-0.04,1.00,-0.12,-0.12,0.00,16.00,-8.50,43.50,53.650928,9.698437,4.40,0.20,12,3.652,0,31,-1,2,2
179018,0.02,-0.04,1.00,0.00,-0.06,0.00,21.00,-4.50,44.50,53.650928,9.698437,4.40,0.20,12,3.622,0,16,-1,2,2
179118,0.01,-0.04,0.99,0.00,-0.06,-0.06,16.00,-5.50,44.50,53.650928,9.698437,4.40,0.20,12,3.682,0,23,-1,2,2
179218,0.02,-0.04,1.00,0.00,-0.06,0.00,18.00,-5.50,48.50,53.650928,9.698437,4.40,0.20,12,3.662,0,21,-1,2,2
179318,0.01,-0.04,1.00,0.00,-0.12,0.00,17.00,-6.50,45.50,53.650928,9.698437,4.40,0.20,12,3.662,0,25,-2,2,2
179445,0.02,-0.04,1.00,0.00,-0.06,0.00,20.00,-7.50,44.50,53.650928,9.698438,4.40,0.20,12,3.602,0,23,-2,2,2
179545,0.02,-0.04,1.00,-0.06,-0.06,0.00,18.00,-7.50,46.50,53.650928,9.698438,4.40,0.20,12,3.562,0,26,-1,2,2
179645,0.02,-0.04,1.00,0.00,-0.12,0.00,18.00,-7.50,44.50,53.650928,9.698438,4.40,0.20,12,3.632,0,26,-1,2,2
179755,0.01,-0.04,1.00,0.00,-0.06,0.00,20.00,-5.50,47.50,53.650928,9.698437,4.40,0.76,12,3.582,0,19,-1,2,2
179855,0.02,-0.04,1.00,0.06,-0.06,-0.06,18.00,-4.50,42.50,53.650928,9.698437,4.40,0.09,12,3.602,0,18,-1,2,2
179992,0.01,-0.04,1.00,0.00,-0.06,0.00,21.00,-5.50,45.50,53.650928,9.698437,4.40,0.09,12,3.582,0,18,-1,2,2
180092,0.01,-0.04,1.00,-0.06,-0.06,0.00,20.00,-6.50,45.50,53.650928,9.698437,4.40,0.26,12,3.642,0,21,-2,2,2
180192,0.02,-0.04,1.00,0.06,-0.12,0.00,20.00,-6.50,49.50,53.650928,9.698437,4.40,0.26,12,3.622,0,21,-1,2,2
180292,0.02,-0.04,1.00,-0.12,-0.06,0.00,20.00,-5.50,41.50,53.650928,9.698437,4.40,0.26,12,3.542,0,19,-1,2,2
180392,0.02,-0.04,1.00,0.06,-0.06,0.00,18.00,-6.50,39.50,53.650928,9.698437,4.40,0.26,12,3.622,0,23,-1,2,2
180492,0.02,-0.05,1.00,0.43,-0.12,0.06,20.00,-8.50,42.50,53.650928,9.698437,4.40,0.26,12,3.632,0,26,-2,2,2
180592,0.01,-0.04,0.99,0.00,-0.06,-0.06,21.00,-5.50,46.50,53.650928,9.698437,4.40,0.26,12,3.642,0,18,-1,2,2
180692,0.02,-0.04,1.00,-0.06,0.00,-0.06,20.00,-8.50,45.50,53.650928,9.698437,4.40,0.26,12,3.622,0,26,-1,2,2
180793,0.01,-0.04,1.00,-0.12,-0.06,0.00,16.00,-5.50,44.50,53.650928,9.698437,4.40,0.09,12,3.602,0,23,-1,2,2
180893,0.02,-0.04,1.00,-0.18,0.06,0.00,20.00,-5.50,50.50,53.650928,9.698437,4.40,0.09,12,3.512,0,19,-1,2,2
180993,0.01,-0.04,1.00,-0.18,0.00,-0.06,14.00,-6.50,43.50,53.650928,9.698437,4.40,0.09,12,3.442,0,29,-1,2,2
181094,0.01,-0.04,0.99,-0.06,-0.06,-0.06,20.00,-6.50,43.50,53.650928,9.698437,4.40,0.09,12,3.622,0,21,-2,2,2
181194,0.02,-0.04,1.00,0.06,-0.06,0.06,18.00,-7.50,44.50,53.650928,9.698437,4.40,0.09,12,3.502,0,26,-1,2,2
181294,0.02,-0.04,1.00,-0.18,-0.12,0.00,13.00,-6.50,46.50,53.650928,9.698437,4.40,0.09,12,3.632,0,30,-1,2,2
181394,0.02,-0.04,1.00,-0.18,0.00,-0.12,20.00,-6.50,44.50,53.650928,9.698437,4.40,0.09,12,3.572,0,21,-1,2,2
181495,0.01,-0.03,1.00,-0.49,0.06,0.00,19.00,-8.50,46.50,53.650928,9.698437,4.40,0.02,12,3.612,0,27,-1,2,2
181595,0.02,-0.04,1.00,-0.37,0.12,0.00,20.00,-6.50,42.50,53.650928,9.698437,4.40,0.11,12,3.632,0,21,-1,2,2
181695,0.02,-0.04,1.00,-0.31,0.06,0.06,20.00,-6.50,46.50,53.650928,9.698437,4.40,0.11,12,3.632,0,21,-1,2,2
181796,0.02,-0.03,1.00,-0.31,0.12,0.00,22.00,-6.50,48.50,53.650928,9.698437,4.40,0.11,12,3.621,1,19,-1,2,2
181896,0.02,-0.04,1.00,-0.06,0.00,-0.06,18.00,-7.50,45.50,53.650928,9.698437,4.40,0.11,12,3.632,1,26,-1,2,2
181996,0.02,-0.03,1.00,-0.31,0.00,0.06,16.00,-8.50,43.50,53.650928,9.698437,4.40,0.11,12,3.631,0,30,-1,2,2
182097,0.02,-0.01,0.94,-1.22,0.37,-0.06,19.00,-5.50,47.50,53.650928,9.698437,4.40,0.11,12,3.530,1,17,-1,2,2
182200,0.02,-0.03,1.01,-0.24,0.06,0.00,20.00,-6.50,44.50,53.650928,9.698437,4.40,0.11,12,3.621,1,20,-1,2,2
182300,0.02,-0.03,1.00,0.12,-0.12,0.06,21.00,-5.50,48.50,53.650928,9.698437,4.40,0.15,12,3.581,1,17,-2,2,2
182401,0.02,-0.02,1.00,0.12,-0.24,0.00,19.00,-6.50,45.50,53.650928,9.698437,4.40,0.15,12,3.701,1,20,-2,2,2
182501,0.02,-0.03,1.00,0.06,-0.12,-0.06,22.00,-7.50,49.50,53.650928,9.698437,4.40,0.15,12,3.601,1,21,-2,2,2
182601,0.02,-0.03,1.00,0.06,-0.06,0.00,20.00,-6.50,42.50,53.650928,9.698437,4.40,0.15,12,3.661,1,20,-1,2,2
182701,0.02,-0.03,1.00,0.12,-0.12,0.00,23.00,-6.50,44.50,53.650928,9.698437,4.40,0.15,12,3.581,1,18,-1,2,2
182801,0.02,-0.03,1.00,0.06,-0.06,0.00,15.00,-19.50,42.50,53.650928,9.698437,4.40,0.15,12,3.611,1,52,-1,2,2
182901,0.02,-0.03,0.99,0.06,-0.06,0.00,18.00,-17.50,56.50,53.650928,9.698437,4.40,0.15,12,3.611,1,45,-1,2,2
183001,0.02,-0.05,1.01,0.31,0.00,0.06,19.00,-10.50,57.50,53.650928,9.698437,4.50,0.22,12,3.552,1,33,-1,2,2
183101,0.02,-0.03,0.99,-0.06,-0.06,0.06,19.00,-6.50,59.50,53.650928,9.698437,4.50,0.22,12,3.601,1,21,-1,2,2
183201,0.02,-0.04,0.99,0.00,-0.06,-0.06,19.00,-6.50,59.50,53.650928,9.698437,4.50,0.22,12,3.622,1,23,-2,2,2
183301,0.03,-0.03,1.02,0.31,0.00,-0.12,13.00,-8.50,62.50,53.650928,9.698437,4.50,0.22,12,3.621,1,35,-1,2,2
183401,0.02,-0.03,0.99,0.12,0.06,0.06,16.00,-6.50,56.50,53.650928,9.698437,4.50,0.22,12,3.631,1,24,-2,2,2
183501,0.02,-0.03,0.99,0.00,-0.06,0.00,19.00,-7.50,56.50,53.650928,9.698437,4.50,0.22,12,3.601,1,24,-2,2,2
183601,0.02,-0.03,0.99,-0.18,-0.12,0.00,17.00,-7.50,56.50,53.650928,9.698437,4.50,0.22,12,3.561,1,26,-2,2,2
183702,0.02,-0.03,1.00,-0.06,-0.06,-0.06,13.00,-6.50,53.50,53.650928,9.698437,4.50,0.35,12,3.631,0,30,-2,2,2
183810,0.02,-0.03,0.99,0.24,0.06,0.00,18.00,-7.50,58.50,53.650928,9.698437,4.50,0.35,12,3.651,1,25,-2,2,2
183910,0.02,-0.03,0.99,0.12,0.00,0.00,20.00,-7.50,61.50,53.650928,9.698437,4.50,0.35,12,3.611,1,23,-2,2,2
184010,0.02,-0.03,1.00,-0.06,-0.12,0.00,12.00,-6.50,58.50,53.650928,9.698437,4.50,0.35,12,3.621,1,32,-2,2,2
184110,0.02,-0.03,0.99,0.18,0.00,-0.06,18.00,-6.50,53.50,53.650928,9.698437,4.50,0.35,12,3.631,1,22,-1,2,2
184210,0.02,-0.03,1.00,0.37,0.06,-0.06,16.00,-6.50,57.50,53.650928,9.698437,4.50,0.35,12,3.651,1,25,-2,2,2
184311,0.02,-0.03,1.00,0.24,0.06,-0.12,20.00,-7.50,50.50,53.650928,9.698437,4.50,0.35,12,3.641,1,23,-1,2,2
184424,0.02,-0.03,1.00,0.43,0.00,-0.24,17.00,-6.50,56.50,53.650928,9.698437,4.50,0.35,12,3.591,0,24,-1,2,2
184526,0.02,-0.04,1.00,-0.12,-0.24,-0.12,18.00,-5.50,47.50,53.650928,9.698437,4.50,0.35,12,3.642,1,21,-1,2,2
184626,0.02,-0.04,0.99,0.00,-0.24,0.00,20.00,-5.50,52.50,53.650928,9.698437,4.50,0.35,12,3.612,1,19,-2,2,2
184726,0.02,-0.03,0.99,0.18,0.12,0.12,17.00,-5.50,54.50,53.650928,9.698437,4.50,0.11,12,3.601,1,21,-2,2,2
184826,0.02,-0.03,0.99,-0.43,-0.18,-0.12,19.00,-6.50,60.50,53.650928,9.698437,4.50,0.11,12,3.511,1,22,-2,2,2
184926,0.02,-0.03,0.99,0.24,0.00,0.00,21.00,-5.50,54.50,53.650928,9.698437,4.50,0.11,12,3.631,1,18,-1,2,2
185026,0.02,-0.03,1.00,0.37,-0.12,0.00,19.00,-6.50,56.50,53.650928,9.698437,4.50,0.11,12,3.541,1,22,-2,2,2
185126,0.02,-0.03,1.00,-0.24,-0.31,0.00,17.00,-5.50,63.50,53.650928,9.698437,4.50,0.11,12,3.521,1,22,-1,2,2
185226,0.02,-0.03,0.98,-0.24,-0.18,0.06,22.00,-7.50,56.50,53.650928,9.698437,4.50,0.11,12,3.521,1,22,-1,2,2
185327,0.02,-0.03,0.99,0.24,0.06,0.12,19.00,-5.50,50.50,53.650928,9.698437,4.50,0.11,12,3.641,1,19,-1,2,2
185427,0.02,-0.03,0.97,0.92,0.18,-0.06,20.00,-4.50,55.50,53.650928,9.698437,4.50,0.11,12,3.621,1,16,-1,2,2
185527,0.01,-0.03,1.01,1.59,0.18,0.37,20.00,-5.50,58.50,53.650928,9.698437,4.60,0.11,12,3.551,0,19,-2,2,2
185627,0.02,-0.04,1.00,0.31,0.00,-0.18,20.00,-4.50,56.50,53.650928,9.698436,4.60,0.50,12,3.622,1,17,-1,2,2
185727,0.02,-0.04,1.01,0.00,-0.12,0.06,18.00,-6.50,55.50,53.650928,9.698436,4.60,0.50,12,3.632,1,24,-2,2,2
185829,0.02,-0.03,1.00,0.37,0.06,-0.12,18.00,-4.50,52.50,53.650928,9.698436,4.60,0.50,12,3.481,0,18,-1,2,2
185929,0.02,-0.04,0.99,0.24,-0.06,-0.18,19.00,-4.50,51.50,53.650928,9.698436,4.60,0.50,12,3.602,0,18,-1,2,2
186029,0.01,-0.04,1.00,0.06,-0.12,-0.43,14.00,-5.50,52.50,53.650928,9.698436,4.60,0.50,12,3.662,0,27,-2,2,2
186129,0.02,-0.04,0.99,0.37,0.00,-0.06,18.00,-5.50,55.50,53.650928,9.698436,4.60,0.50,12,3.642,1,22,-1,2,2
186229,0.02,-0.04,0.99,0.24,0.06,0.06,19.00,-4.50,60.50,53.650928,9.698436,4.60,0.50,12,3.632,1,18,-2,2,2
186329,0.02,-0.04,1.00,0.18,-0.06,0.18,20.00,-4.50,55.50,53.650928,9.698436,4.60,0.50,12,3.632,1,17,-1,2,2
186429,0.02,-0.04,1.00,-0.06,-0.12,0.00,20.00,-4.50,54.50,53.650928,9.698436,4.60,0.26,12,3.602,1,17,-2,2,2
186529,0.02,-0.04,1.00,0.55,0.12,0.06,18.00,-6.50,59.50,53.650928,9.698436,4.60,0.26,12,3.532,1,23,-1,2,2
186629,0.02,-0.04,1.00,0.06,-0.12,0.06,20.00,-7.50,48.50,53.650928,9.698436,4.60,0.26,12,3.632,1,23,-1,2,2
186730,0.02,-0.04,1.00,0.73,0.06,-0.06,20.00,-2.50,55.50,53.650928,9.698436,4.60,0.26,12,3.622,1,12,-2,2,2
186830,0.02,-0.04,0.99,-0.24,-0.12,0.00,24.00,-5.50,56.50,53.650928,9.698436,4.60,0.26,12,3.612,1,17,-1,2,2
186930,0.02,-0.04,1.00,-0.12,-0.12,-0.06,22.00,-4.50,56.50,53.650928,9.698436,4.60,0.26,12,3.562,1,16,-1,2,2
187030,0.02,-0.04,0.99,-0.24,-0.06,-0.06,20.00,-8.50,56.50,53.650928,9.698436,4.60,0.26,12,3.622,1,27,-2,2,2
187130,0.02,-0.04,1.00,-0.06,0.00,0.00,20.00,-6.50,56.50,53.650928,9.698436,4.60,0.26,12,3.582,1,22,-1,2,2
187230,0.02,-0.04,0.99,-0.12,0.00,-0.06,14.00,-6.50,56.50,53.650928,9.698436,4.70,0.26,12,3.522,1,30,-1,2,2
187330,0.02,-0.06,0.99,0.18,0.00,0.06,19.00,-5.50,56.50,53.650928,9.698436,4.70,0.63,12,3.563,1,23,-2,2,2
187430,0.02,-0.05,1.00,-0.06,-0.12,-0.12,20.00,-7.50,54.50,53.650928,9.698436,4.70,0.63,12,3.542,1,26,-1,2,2
187530,0.02,-0.03,1.00,0.00,-0.06,0.12,19.00,-7.50,59.50,53.650928,9.698436,4.70,0.63,12,3.641,1,24,-1,2,2
187630,0.02,-0.05,1.00,0.31,0.06,0.06,20.00,-6.50,54.50,53.650928,9.698436,4.70,0.63,12,3.522,1,22,-1,2,2
187761,0.02,-0.04,0.99,0.12,0.00,-0.12,21.00,-5.50,56.50,53.650928,9.698436,4.70,0.31,12,3.582,1,19,-2,2,2
187871,0.02,-0.04,1.00,0.24,0.06,0.00,18.00,-5.50,52.50,53.650928,9.698436,4.70,0.31,12,3.642,1,21,-2,2,2
187971,0.02,-0.05,1.01,-0.18,-0.18,-0.18,20.00,-5.50,60.50,53.650928,9.698436,4.70,0.31,12,3.632,1,21,-1,2,2
188071,0.02,-0.04,1.00,0.12,-0.06,-0.06,23.00,-3.50,54.50,53.650928,9.698436,4.70,0.19,12,3.622,1,12,-1,2,2
188171,0.02,-0.04,0.99,0.24,0.00,0.06,24.00,-5.50,58.50,53.650928,9.698436,4.70,0.19,12,3.622,1,17,-1,2,2
188271,0.02,-0.05,1.01,0.18,-0.12,-0.18,20.00,-4.50,59.50,53.650928,9.698436,4.70,0.19,12,3.592,1,18,-2,2,2
188371,0.03,-0.04,1.00,0.73,-0.06,0.06,21.00,-4.50,62.50,53.650928,9.698436,4.70,0.19,12,3.632,1,17,-1,2,2
188471,0.02,-0.04,0.99,0.24,0.00,-0.06,15.00,-4.50,62.50,53.650928,9.698436,4.70,0.19,12,3.632,1,23,-1,2,2
188571,0.02,-0.04,0.99,-0.06,0.00,0.00,13.00,-2.50,57.50,53.650928,9.698436,4.70,0.19,12,3.622,1,19,-1,2,2
188671,0.02,-0.04,0.98,-0.67,-0.31,0.00,16.00,-1.50,57.50,53.650928,9.698436,4.70,0.37,12,3.622,1,13,-1,2,2
188772,0.03,-0.04,1.00,-0.06,-0.06,0.00,18.00,-4.50,58.50,53.650928,9.698436,4.70,0.37,12,3.632,1,19,-1,2,2
188872,0.02,-0.05,0.99,0.06,-0.06,0.00,17.00,-6.50,56.50,53.650928,9.698436,4.70,0.37,12,3.562,1,27,-1,2,2
188972,0.02,-0.05,1.00,0.00,-0.12,0.00,19.00,-3.50,55.50,53.650928,9.698436,4.70,0.17,12,3.632,1,16,-1,2,2
189072,0.02,-0.05,0.99,0.06,0.00,-0.06,17.00,-4.50,61.50,53.650928,9.698436,4.70,0.17,12,3.462,1,21,-2,2,2
189172,0.02,-0.04,0.99,0.12,-0.06,0.00,17.00,-3.50,57.50,53.650928,9.698436,4.70,0.17,12,3.622,1,17,-2,2,2
189272,0.02,-0.05,1.00,0.00,-0.06,-0.06,21.00,-2.50,57.50,53.650928,9.698436,4.70,0.17,12,3.472,1,12,-1,2,2
189372,0.02,-0.05,1.00,0.12,-0.06,-0.06,22.00,-4.50,57.50,53.650928,9.698436,4.70,0.17,12,3.612,1,16,-1,2,2
189472,0.02,-0.04,1.00,0.06,-0.18,0.00,16.00,-5.50,57.50,53.650928,9.698436,4.70,0.17,12,3.582,1,24,-1,2,2
189583,0.02,-0.05,1.00,0.06,0.00,-0.12,20.00,-5.50,57.50,53.650928,9.698436,4.70,0.17,12,3.622,1,21,-1,2,2
189683,0.02,-0.05,0.99,0.24,-0.06,-0.06,18.00,-6.50,62.50,53.650928,9.698436,4.70,0.17,12,3.612,1,25,-1,2,2
189783,0.02,-0.05,1.00,0.06,0.00,-0.06,15.00,-4.50,58.50,53.650928,9.698436,4.70,0.48,12,3.492,1,23,-1,2,2
189883,0.02,-0.05,1.00,-0.12,-0.12,-0.06,16.00,-1.50,61.50,53.650928,9.698436,4.70,0.48,12,3.622,1,13,-1,2,2
190013,0.02,-0.04,1.00,0.24,0.06,0.06,20.00,-3.50,56.50,53.650928,9.698436,4.70,0.48,12,3.572,1,15,-1,2,2
190113,0.03,-0.05,0.99,0.00,0.00,-0.24,21.00,-3.50,55.50,53.650928,9.698436,4.70,0.48,12,3.632,1,15,-1,2,2
190213,0.02,-0.05,1.00,0.31,0.06,0.06,18.00,-5.50,57.50,53.650928,9.698436,4.70,0.48,12,3.612,1,23,-1,2,2
190313,0.02,-0.04,0.99,0.12,0.06,-0.06,20.00,-3.50,61.50,53.650928,9.698436,4.70,0.48,12,3.452,1,16,-2,2,2
190413,0.02,-0.05,1.00,0.00,-0.06,0.00,18.00,-6.50,53.50,53.650928,9.698436,4.70,0.48,12,3.602,1,24,-1,2,2
190513,0.02,-0.06,1.00,0.00,-0.06,-0.12,18.00,-4.50,57.50,53.650928,9.698436,4.70,0.20,12,3.603,1,22,-1,2,2
190613,0.02,-0.04,1.00,-0.06,-0.12,0.06,21.00,-5.50,57.50,53.650928,9.698436,4.70,0.07,12,3.622,0,19,-1,2,2
190713,0.02,-0.06,0.99,0.37,0.00,-0.06,18.00,-4.50,59.50,53.650928,9.698436,4.70,0.07,12,3.533,0,22,-1,2,2
190813,0.02,-0.05,1.00,0.37,0.06,-0.37,18.00,-6.50,61.50,53.650928,9.698436,4.70,0.07,12,3.562,1,25,-1,2,2
190913,0.03,-0.05,1.00,0.06,0.18,0.00,20.00,-5.50,54.50,53.650928,9.698436,4.70,0.07,12,3.542,1,20,-2,2,2
191013,0.03,-0.04,1.00,-0.31,-0.79,0.18,15.00,-4.50,61.50,53.650928,9.698436,4.70,0.07,12,3.622,1,22,-1,2,2
191178,0.02,-0.06,1.00,-0.06,-0.24,-0.37,18.00,-5.50,59.50,53.650928,9.698436,4.70,0.07,12,3.633,1,25,-1,2,2
191278,0.03,-0.06,1.00,0.12,0.00,0.06,17.00,-3.50,54.50,53.650928,9.698436,4.70,0.07,12,3.573,1,19,-2,2,2
191378,0.03,-0.05,0.99,0.00,0.00,0.12,18.00,-4.50,57.50,53.650928,9.698436,4.70,0.07,12,3.632,1,20,-1,2,2
191478,0.03,-0.05,0.99,-0.06,-0.06,0.00,18.00,-6.50,56.50,53.650928,9.698436,4.70,0.07,12,3.522,1,25,-2,2,2
191578,0.02,-0.04,0.99,0.06,-0.12,-0.12,20.00,-5.50,52.50,53.650928,9.698436,4.70,0.07,12,3.612,1,20,-1,2,2
191678,0.02,-0.06,0.99,-0.18,-0.18,-0.06,15.00,-5.50,52.50,53.650928,9.698436,4.70,0.07,12,3.473,1,27,-1,2,2
191778,0.03,-0.05,0.99,0.24,0.00,0.12,20.00,-2.50,56.50,53.650928,9.698436,4.70,0.07,12,3.633,1,14,-1,2,2
191878,0.03,-0.04,0.99,-0.06,-0.18,-0.12,18.00,-3.50,57.50,53.650928,9.698436,4.70,0.46,12,3.532,1,16,-1,2,2
191986,0.03,-0.05,0.99,0.37,0.00,0.06,18.00,-3.50,57.50,53.650928,9.698436,4.70,0.46,12,3.622,1,17,-2,2,2
192086,0.03,-0.05,1.00,0.31,0.00,0.00,20.00,-2.50,58.50,53.650928,9.698436,4.70,0.46,12,3.642,1,14,-1,2,2
192186,0.03,-0.05,1.00,0.06,-0.18,0.06,20.00,-2.50,58.50,53.650928,9.698436,4.70,0.46,12,3.612,1,13,-2,2,2
192286,0.03,-0.05,0.98,0.00,-0.12,-0.12,20.00,-5.50,54.50,53.650928,9.698436,4.70,0.46,12,3.602,1,20,-1,2,2
192388,0.02,-0.05,1.00,0.18,-0.06,0.00,19.00,-4.50,55.50,53.650928,9.698436,4.70,0.46,12,3.422,1,19,-1,2,2
192488,0.02,-0.04,0.99,-0.06,-0.06,-0.06,18.00,-4.50,55.50,53.650928,9.698436,4.70,0.46,12,3.622,1,19,-1,2,2
192588,0.03,-0.05,1.00,-0.55,-0.31,-0.12,19.00,-6.50,58.50,53.650928,9.698436,4.70,0.46,12,3.602,1,24,-2,2,2
192688,0.02,-0.06,0.99,0.06,-0.12,0.00,19.00,-5.50,57.50,53.650928,9.698436,4.60,0.46,12,3.633,1,23,-2,2,2
192788,0.02,-0.05,0.99,0.18,-0.06,0.00,21.00,-6.50,59.50,53.650928,9.698436,4.60,0.44,12,3.682,1,22,-2,2,2
192888,0.03,-0.05,1.00,0.00,-0.12,-0.06,16.00,-6.50,52.50,53.650928,9.698436,4.60,0.44,12,3.513,1,28,-2,2,2
192988,0.03,-0.05,0.99,0.00,-0.06,0.06,19.00,-7.50,56.50,53.650928,9.698436,4.60,0.44,12,3.632,1,26,-2,2,2
193088,0.03,-0.05,0.99,0.00,0.00,0.06,20.00,-6.50,56.50,53.650928,9.698436,4.60,0.44,12,3.632,1,23,-1,2,2
193188,0.02,-0.05,0.99,-0.43,-0.06,-0.12,19.00,-3.50,60.50,53.650928,9.698436,4.60,0.44,12,3.462,1,17,-2,2,2
193288,0.03,-0.05,1.00,0.18,0.00,-0.18,15.00,-6.50,54.50,53.650928,9.698436,4.60,0.44,12,3.622,1,28,-1,2,2
193388,0.03,-0.06,1.00,0.12,-0.06,0.00,17.00,-6.50,57.50,53.650928,9.698436,4.60,0.44,12,3.603,1,27,-1,2,2
193488,0.03,-0.04,0.99,-0.24,-0.18,-0.31,19.00,-4.50,56.50,53.650928,9.698436,4.60,0.44,12,3.622,1,18,-1,2,2
193588,0.03,-0.05,1.00,-0.12,-0.06,-0.18,17.00,-6.50,55.50,53.650928,9.698436,4.60,0.61,12,3.633,1,27,-1,2,2
193688,0.03,-0.05,1.00,0.06,0.00,0.06,15.00,-8.50,56.50,53.650928,9.698436,4.60,0.61,12,3.563,1,34,-1,2,2
193788,0.03,-0.05,0.99,-0.18,-0.06,0.00,20.00,-4.50,59.50,53.650928,9.698436,4.60,0.61,12,3.542,1,18,-1,2,2
193888,0.02,-0.06,0.99,-0.06,-0.12,-0.12,18.00,-15.50,48.50,53.650928,9.698436,4.60,0.61,12,3.623,1,43,-1,2,2
193993,0.03,-0.04,1.00,0.00,-0.06,0.00,18.00,-5.50,41.50,53.650928,9.698436,4.60,0.61,12,3.622,1,21,-1,2,2
194093,0.02,-0.05,0.99,0.06,-0.06,-0.06,18.00,-2.50,42.50,53.650928,9.698436,4.60,0.61,12,3.622,1,13,-1,2,2
194193,0.03,-0.05,1.00,-0.06,-0.12,-0.06,20.00,-1.50,39.50,53.650928,9.698436,4.60,0.61,12,3.622,1,9,-1,2,2
194293,0.03,-0.05,0.99,0.00,-0.06,0.00,19.00,1.50,42.50,53.650928,9.698436,4.50,0.61,12,3.542,1,1,-2,2,2
194393,0.02,-0.05,1.00,-0.06,-0.06,0.00,21.00,-1.50,40.50,53.650928,9.698436,4.60,0.63,12,3.562,1,8,-1,2,2
194493,0.02,-0.05,0.99,-0.06,-0.12,-0.06,20.00,-0.50,41.50,53.650928,9.698436,4.60,0.63,12,3.602,1,6,-2,2,2
194593,0.02,-0.05,0.99,-0.06,-0.12,-0.06,21.00,-2.50,43.50,53.650928,9.698436,4.60,0.63,12,3.572,1,11,-1,2,2
194693,0.02,-0.05,1.00,-0.06,-0.06,0.00,18.00,-6.50,43.50,53.650928,9.698436,4.60,0.63,12,3.612,1,24,-1,2,2
194793,0.03,-0.05,0.99,0.06,-0.06,-0.06,21.00,-13.50,41.50,53.650928,9.698436,4.60,0.63,12,3.632,1,35,-1,2,2
194893,0.02,-0.05,0.99,0.00,0.00,0.00,22.00,-8.50,41.50,53.650928,9.698436,4.60,0.63,12,3.622,1,24,-1,2,2
194993,0.02,-0.05,1.00,0.00,-0.06,0.00,21.00,-7.50,39.50,53.650928,9.698436,4.60,0.63,12,3.582,1,23,-1,2,2
195093,0.03,-0.05,0.99,0.00,-0.06,0.00,15.00,-5.50,39.50,53.650928,9.698436,4.50,0.63,12,3.562,1,24,-1,2,2
195193,0.03,-0.05,1.00,0.00,-0.12,0.06,19.00,-7.50,41.50,53.650928,9.698436,4.50,0.26,12,3.522,1,25,-1,2,2
195293,0.03,-0.05,0.99,-0.06,-0.06,-0.06,19.00,-9.50,35.50,53.650928,9.698436,4.50,0.19,12,3.582,1,29,-1,2,2
195393,0.02,-0.05,1.00,0.00,-0.06,-0.06,20.00,-8.50,35.50,53.650928,9.698436,4.50,0.19,12,3.582,1,26,-1,2,2
195493,0.02,-0.05,1.00,0.00,-0.12,0.00,20.00,-8.50,33.50,53.650928,9.698436,4.50,0.19,12,3.632,1,25,-1,2,2
195626,0.03,-0.05,1.00,0.00,-0.06,-0.06,20.00,-8.50,37.50,53.650928,9.698436,4.50,0.19,12,3.632,1,26,-2,2,2
195726,0.03,-0.05,1.00,-0.06,-0.06,0.00,17.00,-8.50,37.50,53.650928,9.698436,4.50,0.19,12,3.612,1,29,-1,2,2
195826,0.02,-0.05,1.00,0.00,-0.06,0.00,19.00,-8.50,38.50,53.650928,9.698436,4.50,0.19,12,3.622,1,27,-1,2,2
195926,0.03,-0.05,1.00,-0.06,0.00,-0.12,20.00,-10.50,34.50,53.650928,9.698436,4.50,0.19,12,3.632,1,30,-1,2,2
196026,0.03,-0.05,0.99,0.00,0.00,0.00,17.00,-8.50,30.50,53.650928,9.698436,4.50,0.19,12,3.572,1,29,-1,2,2
196126,0.03,-0.05,0.99,0.00,-0.12,0.06,17.00,-8.50,35.50,53.650928,9.698436,4.50,0.19,12,3.652,1,29,-1,2,2
196227,0.02,-0.05,0.99,0.00,0.00,-0.06,21.00,-9.50,34.50,53.650928,9.698436,4.50,0.19,12,3.632,1,26,-2,2,2
196327,0.02,-0.05,0.99,-0.06,0.00,0.00,13.00,-8.50,37.50,53.650928,9.698436,4.50,0.19,12,3.622,1,36,-2,2,2
196427,0.03,-0.05,1.00,-0.06,-0.06,-0.06,14.00,-7.50,42.50,53.650928,9.698436,4.50,0.19,12,3.492,1,32,-2,2,2
196527,0.03,-0.05,0.99,-0.06,-0.06,0.00,19.00,-7.50,30.50,53.650928,9.698436,4.50,0.19,12,3.632,1,24,-2,2,2
196627,0.03,-0.05,0.99,0.00,-0.12,0.06,19.00,-6.50,38.50,53.650928,9.698436,4.50,0.19,12,3.632,1,22,-2,2,2
196729,0.02,-0.05,1.00,0.00,-0.12,-0.06,20.00,-5.50,36.50,53.650928,9.698436,4.50,0.19,12,3.442,1,18,-2,2,2
196829,0.03,-0.05,0.99,-0.06,0.00,-0.06,20.00,-6.50,44.50,53.650928,9.698436,4.50,0.19,12,3.632,1,22,-1,2,2
196929,0.03,-0.05,0.99,0.00,-0.06,-0.06,18.00,-5.50,44.50,53.650928,9.698436,4.50,0.19,12,3.632,1,21,-2,2,2
197029,0.03,-0.05,1.00,0.00,-0.06,0.00,20.00,-5.50,39.50,53.650928,9.698435,4.40,0.19,12,3.622,1,19,-1,2,2
197129,0.02,-0.05,0.99,-0.06,-0.12,0.00,14.00,-6.50,46.50,53.650928,9.698435,4.40,0.17,12,3.592,1,30,-1,2,2
197229,0.02,-0.05,1.00,-0.06,0.00,-0.06,14.00,-5.50,44.50,53.650928,9.698435,4.40,0.17,12,3.672,1,26,-1,2,2
197329,0.03,-0.05,1.00,-0.06,-0.06,-0.06,19.00,-6.50,46.50,53.650928,9.698435,4.40,0.17,12,3.652,1,23,-2,2,2
197429,0.03,-0.05,1.00,-0.06,0.00,-0.06,16.00,-5.50,42.50,53.650928,9.698435,4.40,0.17,12,3.622,1,23,-1,2,2
197529,0.02,-0.05,1.00,0.06,-0.06,0.00,19.00,-5.50,48.50,53.650928,9.698435,4.40,0.17,12,3.642,1,21,-1,2,2
197630,0.02,-0.05,0.99,-0.18,0.06,-0.06,14.00,-6.50,43.50,53.650928,9.698435,4.40,0.17,12,3.632,1,29,-2,2,2
197730,0.03,-0.05,1.00,0.06,-0.12,0.00,18.00,-5.50,45.50,53.650928,9.698435,4.40,0.17,12,3.632,1,21,-1,2,2
197830,0.03,-0.06,1.00,0.31,-0.31,0.06,20.00,-7.50,44.50,53.650928,9.698435,4.30,0.17,12,3.533,1,25,-1,2,2
197930,0.02,-0.05,0.99,-0.12,0.00,-0.06,18.00,-5.50,45.50,53.650928,9.698435,4.30,0.17,12,3.612,1,22,-1,2,2
198033,0.02,-0.05,0.99,-0.24,0.06,-0.18,18.00,-8.50,39.50,53.650928,9.698435,4.30,0.17,12,3.532,1,28,-1,2,2
198133,0.02,-0.05,0.99,-0.06,0.06,0.24,15.00,-8.50,46.50,53.650928,9.698435,4.30,0.17,12,3.622,1,33,-2,2,2
198233,0.03,-0.05,0.99,-0.12,0.00,-0.18,20.00,-6.50,44.50,53.650928,9.698435,4.30,0.17,12,3.672,1,22,-2,2,2
198333,0.03,-0.04,0.99,-0.12,-0.12,-0.37,16.00,-7.50,49.50,53.650928,9.698435,4.30,0.17,12,3.632,1,28,-2,2,2
198433,0.03,-0.05,0.99,0.06,-0.06,-0.12,14.00,-7.50,45.50,53.650928,9.698435,4.30,0.17,12,3.672,1,32,-1,2,2
198534,0.03,-0.04,1.00,-0.31,0.24,0.00,23.00,-6.50,51.50,53.650928,9.698435,4.30,0.17,12,3.562,1,19,-1,2,2
198634,0.03,-0.05,1.00,0.00,0.06,0.12,20.00,-6.50,46.50,53.650928,9.698435,4.30,0.13,12,3.612,1,22,-1,2,2
198734,0.03,-0.05,1.00,-0.06,-0.06,-0.06,15.00,-4.50,44.50,53.650928,9.698435,4.30,0.13,12,3.613,1,22,-1,2,2
198834,0.03,-0.05,0.99,0.43,-0.24,0.12,21.00,-6.50,41.50,53.650928,9.698435,4.30,0.13,12,3.652,1,20,-2,2,2
198948,0.03,-0.05,0.99,0.49,-0.37,0.06,16.00,-7.50,46.50,53.650928,9.698435,4.30,0.13,12,3.602,1,29,-2,2,2
199048,0.03,-0.04,1.00,0.49,-0.37,0.24,18.00,-8.50,44.50,53.650928,9.698435,4.30,0.13,12,3.622,1,28,-1,2,2
199148,0.03,-0.05,0.99,-0.06,-0.06,-0.24,20.00,-8.50,45.50,53.650928,9.698435,4.30,0.13,12,3.602,1,26,-2,2,2
199248,0.04,-0.04,0.97,-0.12,-0.06,0.00,19.00,-8.50,48.50,53.650928,9.698435,4.30,0.13,12,3.612,2,27,-1,2,2
199348,0.03,-0.04,1.00,-0.06,0.00,-0.12,20.00,-7.50,46.50,53.650928,9.698435,4.30,0.13,12,3.502,1,23,-1,2,2
199448,0.03,-0.05,1.01,0.06,-0.24,0.00,15.00,-6.50,46.50,53.650928,9.698435,4.30,0.13,12,3.563,1,28,-1,2,2
199548,0.02,-0.05,0.99,0.24,-0.79,0.18,20.00,-6.50,45.50,53.650928,9.698435,4.20,0.17,12,3.623,1,22,-1,2,2
199667,0.02,-0.06,1.00,-0.24,-0.06,-0.18,20.00,-4.50,45.50,53.650928,9.698435,4.20,0.13,12,3.633,1,18,-1,2,2
199767,0.03,-0.05,0.99,0.43,-0.31,0.12,21.00,-8.50,41.50,53.650928,9.698435,4.20,0.33,12,3.642,1,25,-1,2,2
199867,0.03,-0.05,0.99,-0.12,-0.06,-0.12,22.00,-9.50,42.50,53.650928,9.698435,4.20,0.33,12,3.652,1,26,-2,2,2
199967,0.03,-0.05,0.99,0.00,-0.18,0.00,21.00,-7.50,47.50,53.650928,9.698435,4.20,0.33,12,3.622,1,24,-1,2,2
200139,0.03,-0.05,1.00,0.37,-0.61,0.00,20.00,-5.50,46.50,53.650928,9.698435,4.20,0.33,12,3.602,1,19,-1,2,2
200239,0.03,-0.05,0.99,-0.06,0.00,-0.06,18.00,-8.50,44.50,53.650928,9.698435,4.20,0.33,12,3.563,1,29,-1,2,2
200339,0.02,-0.05,1.00,0.18,-0.18,0.06,20.00,-5.50,45.50,53.650928,9.698434,4.20,0.17,12,3.593,1,20,-1,2,2
200439,0.02,-0.06,0.99,0.73,-0.61,0.12,21.00,-6.50,45.50,53.650928,9.698435,4.20,0.31,12,3.633,1,22,-2,2,2
200539,0.02,-0.06,1.00,0.43,-0.61,0.18,16.00,-6.50,45.50,53.650928,9.698435,4.20,0.31,12,3.623,1,28,-1,2,2
200639,0.02,-0.05,0.99,0.18,-0.18,0.06,19.00,-6.50,45.50,53.650928,9.698435,4.20,0.31,12,3.613,1,23,-1,2,2
200739,0.02,-0.05,0.99,-0.43,0.31,-0.06,20.00,-5.50,47.50,53.650928,9.698435,4.20,0.31,12,3.633,1,20,-1,2,2
200839,0.02,-0.05,1.00,0.00,-0.18,-0.06,17.00,-6.50,46.50,53.650928,9.698435,4.20,0.31,12,3.593,1,26,-1,2,2
200939,0.02,-0.06,1.00,0.12,-0.24,-0.06,20.00,-7.50,47.50,53.650928,9.698435,4.20,0.31,12,3.573,1,25,-1,2,2
201039,0.02,-0.05,0.98,0.73,-0.79,0.24,20.00,-6.50,45.50,53.650928,9.698435,4.20,0.31,12,3.613,1,22,-2,2,2
201139,0.02,-0.05,1.00,0.06,-0.18,-0.06,18.00,-7.50,47.50,53.650928,9.698434,4.20,0.31,12,3.623,1,27,-1,2,2
201239,0.02,-0.05,0.99,-0.55,0.43,-0.12,17.00,-8.50,46.50,53.650928,9.698434,4.20,0.04,12,3.632,1,31,-1,2,2
201339,0.02,-0.06,1.00,0.06,-0.12,0.00,20.00,-6.50,46.50,53.650928,9.698434,4.20,0.04,12,3.573,1,23,-2,2,2
201439,0.02,-0.05,0.99,0.12,-0.06,0.06,21.00,-9.50,45.50,53.650928,9.698434,4.20,0.04,12,3.653,1,28,-1,2,2
201540,0.02,-0.05,1.00,0.18,-0.24,0.12,16.00,-6.50,45.50,53.650928,9.698434,4.20,0.04,12,3.473,1,27,-1,2,2
201640,0.02,-0.06,1.00,-0.37,0.31,-0.06,17.00,-8.50,46.50,53.650928,9.698434,4.20,0.04,12,3.593,1,31,-2,2,2
201740,0.02,-0.06,0.99,0.12,-0.31,0.06,21.00,-7.50,43.50,53.650928,9.698434,4.20,0.04,12,3.423,1,24,-1,2,2
201840,0.02,-0.05,0.98,0.55,-0.73,0.00,20.00,-6.50,41.50,53.650928,9.698434,4.20,0.15,12,3.622,1,22,-1,2,2
201940,0.02,-0.06,1.01,-0.24,0.24,-0.12,20.00,-6.50,46.50,53.650928,9.698434,4.20,0.15,12,3.533,1,23,-1,2,2
202040,0.02,-0.05,1.00,0.12,-0.31,-0.06,20.00,-8.50,47.50,53.650928,9.698434,4.20,0.15,12,3.623,1,27,-2,2,2
202163,0.02,-0.06,0.99,0.06,-0.18,0.00,18.00,-6.50,47.50,53.650928,9.698434,4.20,0.15,12,3.573,0,26,-1,2,2
202263,0.02,-0.06,1.01,-0.12,-0.37,-0.06,20.00,-6.50,46.50,53.650928,9.698434,4.20,0.15,12,3.613,1,23,-2,2,2
202363,0.02,-0.05,0.99,-0.06,-0.43,0.12,19.00,-6.50,41.50,53.650928,9.698434,4.20,0.15,12,3.462,1,23,-2,2,2
202466,0.02,-0.05,0.99,0.18,-0.37,-0.06,18.00,-4.50,49.50,53.650928,9.698434,4.20,0.15,12,3.552,0,20,-1,2,2
202567,0.01,-0.06,1.00,0.43,-0.43,0.31,21.00,-6.50,48.50,53.650928,9.698434,4.20,0.15,12,3.533,0,22,-1,2,2
202667,0.02,-0.04,0.99,-0.18,-0.06,-0.24,19.00,-5.50,39.50,53.650928,9.698433,4.20,0.17,12,3.542,0,20,-1,2,2
202768,0.02,-0.05,1.00,-0.06,0.00,0.00,19.00,-5.50,44.50,53.650928,9.698433,4.20,0.17,12,3.632,0,21,-1,2,2
202868,0.02,-0.06,0.99,-0.18,-0.61,-0.12,19.00,-6.50,42.50,53.650928,9.698433,4.20,0.17,12,3.533,0,24,-1,2,2
202968,0.02,-0.05,1.01,0.18,-0.12,0.06,20.00,-4.50,51.50,53.650928,9.698433,4.20,0.17,12,3.622,0,18,-1,2,2
203068,0.01,-0.05,1.00,0.12,-0.06,0.06,15.00,-4.50,45.50,53.650928,9.698433,4.20,0.17,12,3.633,0,24,-1,2,2
203168,0.01,-0.05,1.00,0.43,-0.43,0.37,18.00,-6.50,47.50,53.650928,9.698433,4.20,0.17,12,3.633,0,26,-1,2,2
203269,0.01,-0.05,1.00,0.24,-0.43,0.00,12.00,-4.50,48.50,53.650928,9.698433,4.10,0.28,12,3.642,0,29,-1,2,2
203388,0.02,-0.05,1.00,0.31,-0.37,0.18,15.00,-5.50,47.50,53.650928,9.698433,4.10,0.28,12,3.613,0,26,-1,2,2
203488,0.01,-0.05,0.97,0.06,-0.18,0.06,14.00,-4.50,47.50,53.650928,9.698433,4.10,0.28,12,3.592,0,24,-2,2,2
203588,0.01,-0.05,1.00,-0.37,0.18,-0.06,14.00,-6.50,43.50,53.650928,9.698433,4.10,0.28,12,3.643,0,31,-1,2,2
203688,0.01,-0.05,0.99,0.00,-0.12,-0.18,15.00,-6.50,44.50,53.650928,9.698433,4.10,0.28,12,3.612,0,29,-2,2,2
203788,0.01,-0.05,1.00,0.12,-0.24,0.06,17.00,-6.50,45.50,53.650928,9.698433,4.10,0.28,12,3.623,0,27,-1,2,2
203888,0.01,-0.05,0.99,0.12,-0.24,-0.12,14.00,-8.50,42.50,53.650928,9.698433,4.10,0.28,12,3.632,0,36,-1,2,2
203988,0.01,-0.05,1.00,0.31,-0.18,0.31,19.00,-7.50,46.50,53.650928,9.698433,4.00,0.20,12,3.432,0,26,-2,2,2
204088,0.01,-0.06,1.01,-0.49,0.31,-0.67,15.00,-5.50,46.50,53.650928,9.698433,4.00,0.20,12,3.633,0,27,-1,2,2
204197,0.01,-0.05,1.00,0.18,-0.06,0.12,20.00,-6.50,51.50,53.650928,9.698433,4.00,0.20,12,3.612,0,23,-1,2,2
204297,0.01,-0.06,1.00,0.06,-0.06,-0.12,17.00,-6.50,45.50,53.650928,9.698433,4.00,0.20,12,3.633,0,27,-2,2,2
204397,0.01,-0.06,1.01,0.06,0.00,0.06,14.00,-4.50,46.50,53.650928,9.698432,4.00,0.17,12,3.463,0,26,-1,2,2
204497,0.01,-0.06,0.99,0.18,-0.12,-0.06,17.00,-7.50,40.50,53.650928,9.698432,4.00,0.17,12,3.433,0,29,-1,2,2
204597,0.00,-0.06,0.99,0.00,-0.06,-0.12,20.00,-5.50,44.50,53.650928,9.698432,4.00,0.17,12,3.603,0,21,-1,2,2
204697,0.01,-0.06,1.00,0.12,0.00,-0.06,14.00,-5.50,47.50,53.650928,9.698432,4.00,0.17,12,3.603,0,29,-1,2,2
204797,0.01,-0.06,0.99,-0.06,-0.12,-0.06,13.00,-4.50,43.50,53.650928,9.698432,4.00,0.17,12,3.463,0,27,-1,2,2
204897,0.02,-0.05,1.00,-0.12,-0.06,0.00,16.00,-4.50,46.50,53.650928,9.698432,4.00,0.17,12,3.632,0,22,-2,2,2
204997,0.01,-0.06,1.00,-0.18,0.06,-0.12,20.00,-5.50,41.50,53.650928,9.698432,4.00,0.17,12,3.563,0,21,-1,2,2
205097,0.02,-0.05,1.00,0.18,-0.12,0.06,20.00,-6.50,44.50,53.650928,9.698432,4.00,0.17,12,3.542,0,22,-1,2,2
205197,0.01,-0.06,1.00,0.18,-0.12,-0.06,15.00,-7.50,45.50,53.650928,9.698432,4.00,0.17,12,3.633,0,33,-1,2,2
205297,0.01,-0.05,0.99,-0.06,0.00,0.06,22.00,-7.50,42.50,53.650928,9.698432,4.00,0.15,12,3.602,0,23,-1,2,2
205397,0.01,-0.06,0.99,-0.06,-0.06,-0.06,16.00,-7.50,45.50,53.650928,9.698432,4.00,0.15,12,3.603,0,31,-1,2,2
205497,0.01,-0.06,0.99,-0.06,0.00,-0.06,21.00,-7.50,45.50,53.650928,9.698432,4.00,0.15,12,3.603,0,25,-1,2,2
205597,0.01,-0.06,1.01,-0.12,0.12,0.00,16.00,-6.50,46.50,53.650928,9.698432,4.00,0.15,12,3.603,0,28,-1,2,2
205697,0.01,-0.05,1.00,0.18,-0.24,0.00,19.00,-4.50,48.50,53.650928,9.698432,4.00,0.15,12,3.562,0,19,-1,2,2
205797,0.01,-0.06,1.00,0.06,0.12,0.00,21.00,-6.50,46.50,53.650928,9.698432,4.00,0.15,12,3.553,0,23,-1,2,2
205897,0.01,-0.06,1.00,-0.12,0.00,-0.12,21.00,-4.50,42.50,53.650928,9.698432,4.00,0.15,12,3.543,0,17,-2,2,2
205997,0.01,-0.06,1.00,0.06,-0.12,0.12,19.00,-5.50,40.50,53.650928,9.698432,4.00,0.15,12,3.653,0,22,-1,2,2
206098,0.01,-0.06,1.00,-0.12,0.00,0.06,20.00,-5.50,44.50,53.650928,9.698432,4.00,0.09,12,3.623,0,21,-1,2,2
206210,0.01,-0.06,1.00,-0.06,-0.12,0.00,20.00,-4.50,44.50,53.650928,9.698432,4.00,0.13,12,3.493,0,18,-2,2,2
206310,0.01,-0.05,0.99,-0.37,0.24,-0.06,17.00,-5.50,45.50,53.650928,9.698432,4.00,0.13,12,3.623,0,24,-1,2,2
206410,0.01,-0.05,1.00,0.06,-0.24,0.00,19.00,-4.50,50.50,53.650928,9.698432,4.00,0.13,12,3.512,0,20,-2,2,2
206510,0.01,-0.05,1.00,0.12,-0.18,-0.12,19.00,-5.50,48.50,53.650928,9.698432,3.90,0.17,12,3.432,0,21,-2,2,2
206610,0.01,-0.05,1.00,0.00,-0.06,0.00,20.00,-5.50,42.50,53.650928,9.698432,3.90,0.17,12,3.632,0,20,-2,2,2
206725,0.01,-0.05,1.00,0.00,0.00,0.06,18.00,-5.50,44.50,53.650928,9.698432,3.90,0.17,12,3.462,0,22,-1,2,2
206825,0.01,-0.05,0.99,-0.06,-0.06,0.06,16.00,-3.50,47.50,53.650928,9.698432,3.90,0.17,12,3.623,0,20,-1,2,2
206925,0.01,-0.05,1.00,-0.06,0.00,0.00,20.00,-5.50,41.50,53.650928,9.698432,3.90,0.17,12,3.413,0,20,-2,2,2
207026,0.01,-0.05,1.00,0.00,-0.12,-0.06,20.00,-5.50,46.50,53.650928,9.698432,3.90,0.17,12,3.642,0,20,-1,2,2
207126,0.01,-0.07,1.00,0.00,-0.06,-0.06,16.00,-7.50,43.50,53.650928,9.698432,3.90,0.17,12,3.503,0,32,-1,2,2
207226,0.01,-0.03,0.99,0.12,0.06,0.00,16.00,-7.50,43.50,53.650928,9.698432,3.90,0.17,12,3.521,0,28,-1,2,2
207326,0.01,-0.06,1.00,-0.18,0.00,-0.12,17.00,-4.50,46.50,53.650928,9.698432,3.90,0.17,12,3.503,0,22,-2,2,2
207426,0.01,-0.04,0.99,-0.06,0.06,0.12,20.00,-6.50,44.50,53.650928,9.698432,3.90,0.17,12,3.632,0,22,-1,2,2
207526,0.02,-0.06,1.00,-0.06,-0.12,-0.06,23.00,-6.50,41.50,53.650928,9.698432,3.90,0.19,12,3.443,0,20,-2,2,2
207626,0.01,-0.05,1.00,-0.18,0.00,-0.06,21.00,-5.50,40.50,53.650928,9.698432,3.90,0.26,12,3.522,0,19,-1,2,2
207726,0.01,-0.06,1.00,0.12,-0.18,0.00,18.00,-8.50,46.50,53.650928,9.698432,3.90,0.26,12,3.613,0,31,-1,2,2
207832,0.01,-0.06,1.00,0.00,-0.18,-0.06,21.00,-5.50,45.50,53.650928,9.698432,3.90,0.26,12,3.613,0,20,-1,2,2
207932,0.01,-0.06,1.00,-0.06,0.06,0.00,21.00,-5.50,45.50,53.650928,9.698432,3.90,0.26,12,3.593,0,20,-2,2,2
208032,0.01,-0.06,1.00,0.12,-0.31,0.00,18.00,-7.50,42.50,53.650928,9.698432,3.90,0.26,12,3.543,0,28,-1,2,2
208132,0.01,-0.06,1.00,-0.12,0.12,-0.06,21.00,-5.50,46.50,53.650928,9.698432,3.90,0.26,12,3.573,0,20,-1,2,2
208236,0.01,-0.05,1.00,0.06,-0.12,0.00,19.00,-7.50,46.50,53.650928,9.698432,3.90,0.26,12,3.573,0,27,-2,2,2
208336,0.01,-0.06,1.00,0.18,-0.31,0.00,19.00,-7.50,47.50,53.650928,9.698432,3.90,0.26,12,3.613,0,27,-1,2,2
208436,0.01,-0.05,1.00,0.00,-0.06,-0.06,20.00,-5.50,46.50,53.650928,9.698432,3.90,0.26,12,3.672,0,21,-1,2,2
208536,0.01,-0.05,1.00,-0.18,0.06,-0.06,20.00,-6.50,40.50,53.650928,9.698432,3.80,0.26,12,3.483,0,22,-1,2,2
208636,0.01,-0.05,1.00,-0.06,-0.06,-0.06,20.00,-6.50,47.50,53.650928,9.698432,3.80,0.15,12,3.472,0,23,-1,2,2
208736,0.01,-0.06,1.00,0.06,-0.12,-0.06,20.00,-8.50,47.50,53.650928,9.698432,3.80,0.17,12,3.653,0,29,-1,2,2
208836,0.01,-0.05,1.00,0.00,-0.06,-0.12,16.00,-6.50,53.50,53.650928,9.698432,3.80,0.17,12,3.423,0,29,-1,2,2
208936,0.00,-0.04,1.03,0.06,0.00,0.12,17.00,-6.50,44.50,53.650928,9.698432,3.80,0.17,12,3.382,0,25,-1,2,2
209036,0.01,-0.06,1.01,0.00,0.06,0.06,19.00,-2.50,45.50,53.650928,9.698432,3.80,0.17,12,3.623,0,14,-1,2,2
209136,0.01,-0.05,1.00,0.00,-0.06,-0.06,19.00,-2.50,37.50,53.650928,9.698432,3.80,0.17,12,3.632,0,12,-1,2,2
209236,0.01,-0.05,0.99,0.00,-0.06,0.06,20.00,-5.50,46.50,53.650928,9.698432,3.80,0.17,12,3.603,0,21,-1,2,2
209336,0.01,-0.05,1.00,0.06,-0.06,0.06,17.00,-4.50,42.50,53.650928,9.698432,3.80,0.17,12,3.623,0,21,-1,2,2
209436,0.01,-0.05,1.00,0.00,-0.06,0.00,21.00,-6.50,42.50,53.650928,9.698432,3.80,0.17,12,3.633,0,22,-2,2,2
209536,0.01,-0.05,0.99,0.00,-0.06,-0.06,14.00,-5.50,43.50,53.650928,9.698432,3.70,0.17,12,3.623,0,28,-2,2,2
209636,0.01,-0.05,1.00,-0.06,-0.06,0.00,17.00,-7.50,43.50,53.650928,9.698432,3.70,0.39,12,3.582,0,29,-1,2,2
209749,0.01,-0.06,1.00,0.06,-0.06,0.00,18.00,-6.50,41.50,53.650928,9.698432,3.70,0.39,12,3.573,0,25,-1,2,2
209849,0.01,-0.06,1.00,0.00,-0.12,0.06,20.00,-6.50,44.50,53.650928,9.698432,3.70,0.39,12,3.623,0,23,-2,2,2
209949,0.01,-0.05,1.00,-0.06,-0.12,0.06,17.00,-5.50,38.50,53.650928,9.698432,3.70,0.39,12,3.603,0,23,-2,2,2
210092,0.01,-0.05,1.00,0.00,-0.12,0.00,19.00,-4.50,45.50,53.650928,9.698432,3.70,0.39,12,3.582,0,19,-1,2,2
210193,0.01,-0.05,1.00,0.00,-0.06,0.00,18.00,-7.50,47.50,53.650928,9.698432,3.70,0.11,12,3.613,0,28,-1,2,2
210293,0.01,-0.05,1.00,0.00,-0.12,0.00,19.00,-6.50,45.50,53.650928,9.698432,3.70,0.11,12,3.613,0,24,-1,2,2
210393,0.01,-0.06,1.00,-0.06,-0.06,0.00,20.00,-6.50,40.50,53.650928,9.698432,3.70,0.11,12,3.613,0,23,-1,2,2
210493,0.01,-0.05,1.00,0.00,-0.06,0.00,14.00,-5.50,37.50,53.650928,9.698432,3.70,0.11,12,3.593,0,27,-1,2,2
210596,0.01,-0.05,1.00,-0.06,-0.06,0.00,20.00,-5.50,44.50,53.650928,9.698432,3.70,0.11,12,3.633,0,21,-1,2,2
210696,0.01,-0.06,1.00,0.00,-0.06,0.06,15.00,-8.50,42.50,53.650928,9.698432,3.70,0.11,12,3.603,0,35,-1,2,2
210796,0.02,-0.06,1.00,-0.12,-0.12,0.00,22.00,-4.50,43.50,53.650928,9.698432,3.70,0.11,12,3.473,0,16,-1,2,2
210896,0.01,-0.06,1.01,-0.12,-0.06,0.06,18.00,-4.50,40.50,53.650928,9.698432,3.70,0.11,12,3.603,0,20,-1,2,2
210997,0.01,-0.05,1.00,-0.06,-0.06,0.00,14.00,-5.50,41.50,53.650928,9.698432,3.70,0.13,12,3.642,0,27,-1,2,2
211097,0.01,-0.05,1.00,0.00,0.00,0.00,16.00,-6.50,46.50,53.650928,9.698432,3.70,0.22,12,3.513,0,28,-1,2,2
211198,0.01,-0.05,1.00,0.00,-0.12,0.06,22.00,-6.50,43.50,53.650928,9.698432,3.70,0.22,12,3.432,0,20,-1,2,2
211298,0.01,-0.06,1.00,-0.06,-0.06,0.00,18.00,-6.50,42.50,53.650928,9.698432,3.70,0.22,12,3.613,0,25,-2,2,2
211398,0.01,-0.05,1.00,0.00,-0.06,-0.06,17.00,-7.50,37.50,53.650928,9.698432,3.70,0.22,12,3.592,0,28,-2,2,2
211501,0.01,-0.06,1.00,0.06,0.00,0.00,14.00,-7.50,39.50,53.650928,9.698432,3.70,0.22,12,3.543,0,34,-2,2,2
211601,0.01,-0.06,1.00,0.06,-0.06,0.00,21.00,-5.50,47.50,53.650928,9.698432,3.70,0.11,12,3.633,0,20,-2,2,2
211702,0.01,-0.05,0.99,0.18,-0.06,0.00,15.00,-5.50,39.50,53.650928,9.698432,3.70,0.11,12,3.632,0,26,-2,2,2
211802,0.01,-0.06,0.99,0.00,0.00,0.00,18.00,-5.50,44.50,53.650928,9.698431,3.70,0.15,12,3.643,0,23,-1,2,2
211902,0.01,-0.05,1.00,-0.06,-0.12,-0.12,20.00,-7.50,42.50,53.650928,9.698431,3.70,0.15,12,3.582,0,24,-1,2,2
212002,0.01,-0.06,1.00,-0.06,0.00,0.00,19.00,-4.50,44.50,53.650928,9.698431,3.70,0.17,12,3.623,0,20,-2,2,2
212103,0.01,-0.05,1.00,0.12,0.12,-0.06,21.00,-6.50,39.50,53.650928,9.698431,3.70,0.17,12,3.562,0,21,-1,2,2
212203,0.01,-0.06,1.00,0.18,-0.12,0.00,13.00,-3.50,45.50,53.650928,9.698431,3.70,0.17,12,3.473,0,24,-2,2,2
212370,0.00,-0.05,1.00,0.06,-0.06,0.12,14.00,-6.50,41.50,53.650928,9.698431,3.70,0.17,12,3.592,0,31,-2,2,2
212470,0.01,-0.06,1.00,-0.06,-0.12,-0.06,18.00,-5.50,41.50,53.650928,9.698431,3.70,0.17,12,3.573,0,22,-1,2,2
212570,0.01,-0.05,0.99,-0.06,-0.12,-0.06,20.00,-6.50,44.50,53.650928,9.698431,3.70,0.17,12,3.623,0,23,-2,2,2
212671,0.01,-0.05,1.00,-0.12,-0.12,-0.18,17.00,-5.50,41.50,53.650928,9.698431,3.70,0.17,12,3.582,0,23,-2,2,2
212771,0.01,-0.06,1.00,-0.06,-0.12,0.00,20.00,-5.50,46.50,53.650928,9.698431,3.60,0.24,12,3.623,0,21,-1,2,2
212871,0.01,-0.05,1.00,0.06,-0.06,-0.12,19.00,-7.50,46.50,53.650928,9.698431,3.60,0.24,12,3.642,0,26,-1,2,2
212971,0.01,-0.06,1.00,0.00,0.00,0.12,22.00,-6.50,44.50,53.650928,9.698431,3.60,0.24,12,3.603,0,21,-1,2,2
213072,0.01,-0.05,1.00,0.12,-0.06,0.00,18.00,-4.50,41.50,53.650928,9.698431,3.60,0.24,12,3.592,0,19,-1,2,2
213172,0.01,-0.05,0.99,-0.06,-0.06,0.06,21.00,-5.50,42.50,53.650928,9.698431,3.60,0.24,12,3.642,0,19,-1,2,2
213272,0.01,-0.05,1.00,0.00,-0.06,0.00,14.00,-6.50,43.50,53.650928,9.698431,3.60,0.24,12,3.583,0,31,-2,2,2
213372,0.01,-0.05,1.00,0.06,-0.12,0.00,22.00,-6.50,43.50,53.650928,9.698431,3.60,0.24,12,3.612,0,21,-1,2,2
213472,0.01,-0.05,1.00,-0.12,0.00,-0.06,15.00,-6.50,41.50,53.650928,9.698431,3.60,0.24,12,3.602,0,29,-1,2,2
213572,0.01,-0.05,1.00,-0.06,-0.06,-0.12,18.00,-5.50,43.50,53.650928,9.698431,3.60,0.24,12,3.622,0,22,-1,2,2
213673,0.01,-0.05,0.99,0.00,-0.06,0.00,21.00,-4.50,41.50,53.650928,9.698431,3.60,0.24,12,3.582,0,17,-1,2,2
213773,0.01,-0.04,1.00,0.00,-0.06,0.00,14.00,-5.50,41.50,53.650928,9.698431,3.60,0.24,12,3.602,0,26,-2,2,2
213873,0.01,-0.05,1.00,0.00,-0.12,0.00,21.00,-5.50,41.50,53.650928,9.698431,3.60,0.24,12,3.582,0,19,-2,2,2
213973,0.01,-0.05,1.00,0.00,-0.06,0.00,19.00,-6.50,42.50,53.650928,9.698431,3.50,0.24,12,3.592,0,23,-2,2,2
214074,0.01,-0.05,1.00,-0.06,-0.12,-0.06,17.00,-7.50,40.50,53.650928,9.698431,3.50,0.15,12,3.452,0,28,-1,2,2
214174,0.01,-0.05,1.00,-0.06,-0.06,0.00,18.00,-6.50,44.50,53.650928,9.698431,3.50,0.15,12,3.613,0,25,-1,2,2
214274,0.01,-0.06,1.00,0.06,-0.12,0.00,20.00,-5.50,44.50,53.650928,9.698431,3.50,0.15,12,3.623,0,21,-1,2,2
214394,0.01,-0.05,0.99,0.06,-0.06,0.06,16.00,-5.50,43.50,53.650928,9.698431,3.50,0.15,12,3.593,0,25,-2,2,2
214501,0.01,-0.05,1.00,0.12,-0.12,-0.12,17.00,-6.50,41.50,53.650928,9.698431,3.50,0.15,12,3.462,0,26,-1,2,2
214601,0.01,-0.05,1.00,-0.18,-0.12,-0.06,18.00,-6.50,45.50,53.650928,9.698431,3.50,0.15,12,3.512,0,25,-2,2,2
214701,0.00,-0.05,1.00,-0.06,-0.12,-0.06,14.00,-5.50,44.50,53.650928,9.698431,3.50,0.15,12,3.443,0,28,-2,2,2
214801,0.01,-0.05,1.00,-0.12,0.00,0.00,18.00,-6.50,38.50,53.650928,9.698431,3.50,0.15,12,3.583,0,25,-1,2,2
214901,0.01,-0.05,0.99,-0.06,0.00,-0.06,14.00,-5.50,42.50,53.650928,9.698431,3.50,0.15,12,3.552,0,27,-1,2,2
215001,0.01,-0.05,0.99,-0.12,-0.12,0.00,21.00,-5.50,46.50,53.650928,9.698431,3.50,0.15,12,3.622,0,19,-1,2,2
215101,0.01,-0.05,1.00,0.06,0.00,0.00,13.00,-6.50,42.50,53.650928,9.698431,3.60,0.15,12,3.602,0,32,-2,2,2
215201,0.01,-0.05,1.00,0.06,0.00,0.06,13.00,-6.50,42.50,53.650928,9.698431,3.60,0.04,12,3.502,0,32,-2,2,2
215302,0.01,-0.05,1.00,0.12,0.06,-0.12,19.00,-6.50,42.50,53.650928,9.698431,3.60,0.04,12,3.602,0,24,-2,2,2
215402,0.01,-0.05,1.00,0.06,-0.06,-0.06,16.00,-6.50,39.50,53.650928,9.698431,3.60,0.04,12,3.542,0,27,-2,2,2
215502,0.01,-0.05,1.00,-0.18,-0.06,0.00,17.00,-6.50,50.50,53.650928,9.698431,3.60,0.04,12,3.623,0,27,-1,2,2
215602,0.01,-0.05,1.00,0.00,-0.12,0.00,19.00,-6.50,42.50,53.650928,9.698431,3.60,0.04,12,3.622,0,24,-2,2,2
215702,0.01,-0.05,1.00,-0.12,-0.12,0.00,20.00,-6.50,42.50,53.650928,9.698431,3.60,0.04,12,3.622,0,22,-1,2,2
215802,0.01,-0.05,1.00,0.00,0.00,-0.06,16.00,-6.50,41.50,53.650928,9.698431,3.60,0.04,12,3.622,0,27,-1,2,2
215904,0.00,-0.06,0.99,-0.18,-0.18,-0.06,20.00,-5.50,38.50,53.650928,9.698431,3.60,0.04,12,3.553,0,20,-1,2,2
216004,0.01,-0.05,1.00,-0.12,-0.06,0.06,18.00,-8.50,40.50,53.650928,9.698432,3.60,0.04,12,3.622,0,29,-1,2,2
216105,0.01,-0.05,1.00,0.00,-0.06,-0.06,17.00,-6.50,38.50,53.650928,9.698432,3.60,0.26,12,3.612,0,26,-2,2,2
216205,0.01,-0.05,1.00,0.06,-0.06,-0.06,19.00,-5.50,41.50,53.650928,9.698432,3.60,0.26,12,3.522,0,21,-1,2,2
216305,0.01,-0.05,0.99,0.06,-0.12,-0.06,22.00,-5.50,46.50,53.650928,9.698432,3.60,0.26,12,3.622,0,19,-1,2,2
216405,0.01,-0.05,1.00,0.18,0.00,0.00,15.00,-6.50,41.50,53.650928,9.698432,3.60,0.26,12,3.642,0,28,-1,2,2
216505,0.01,-0.06,1.00,0.00,-0.06,-0.06,19.00,-6.50,44.50,53.650928,9.698432,3.60,0.26,12,3.623,0,24,-1,2,2
216605,0.01,-0.05,1.00,0.06,-0.12,0.06,21.00,-5.50,42.50,53.650928,9.698432,3.60,0.26,12,3.632,0,19,-2,2,2
216705,0.01,-0.05,1.00,0.12,-0.06,0.00,14.00,-2.50,41.50,53.650928,9.698432,3.60,0.26,12,3.623,0,18,-1,2,2
216805,0.01,-0.05,1.00,-0.12,-0.12,0.06,20.00,-5.50,47.50,53.650928,9.698432,3.60,0.26,12,3.622,0,20,-1,2,2
216905,0.01,-0.04,1.00,-0.06,-0.18,0.06,20.00,-5.50,42.50,53.650928,9.698432,3.60,0.26,12,3.622,0,19,-1,2,2
217005,0.01,-0.05,1.00,0.00,0.00,-0.06,18.00,-5.50,39.50,53.650928,9.698432,3.60,0.24,12,3.632,0,21,-1,2,2
217105,0.01,-0.05,1.00,-0.12,0.00,-0.06,19.00,-5.50,42.50,53.650928,9.698432,3.60,0.19,12,3.582,0,21,-1,2,2
217205,0.01,-0.06,1.00,-0.06,-0.06,0.00,19.00,-8.50,41.50,53.650928,9.698432,3.60,0.19,12,3.613,0,29,-2,2,2
217305,0.01,-0.06,0.98,0.24,-0.06,0.12,21.00,-4.50,48.50,53.650928,9.698432,3.60,0.19,12,3.623,0,19,-2,2,2
217405,0.01,-0.06,1.00,0.00,-0.12,-0.06,18.00,-6.50,43.50,53.650928,9.698432,3.60,0.19,12,3.583,0,26,-1,2,2
217505,0.01,-0.06,1.00,-0.24,-0.24,-0.06,19.00,-5.50,41.50,53.650928,9.698432,3.60,0.19,12,3.623,0,21,-1,2,2
217605,0.01,-0.06,1.00,0.12,0.00,0.00,18.00,-5.50,45.50,53.650928,9.698432,3.60,0.19,12,3.513,0,23,-1,2,2
217705,0.01,-0.06,0.99,0.00,-0.12,0.00,19.00,-6.50,46.50,53.650928,9.698432,3.60,0.19,12,3.613,0,25,-1,2,2
217808,0.01,-0.06,1.00,0.12,0.06,0.00,17.00,-6.50,40.50,53.650928,9.698432,3.60,0.43,12,3.613,0,26,-1,2,2
217908,0.01,-0.06,1.00,-0.06,-0.12,0.00,18.00,-5.50,44.50,53.650928,9.698432,3.60,0.37,12,3.553,0,24,-2,2,2
218008,0.00,-0.05,0.99,-0.06,-0.12,-0.06,18.00,-8.50,43.50,53.650928,9.698432,3.60,0.37,12,3.632,0,30,-1,2,2
218108,0.01,-0.05,0.99,-0.24,-0.18,0.00,20.00,-7.50,42.50,53.650928,9.698432,3.60,0.37,12,3.572,0,25,-1,2,2
218208,0.01,-0.05,0.99,-0.24,-0.18,-0.06,15.00,-6.50,41.50,53.650928,9.698432,3.60,0.37,12,3.633,0,29,-1,2,2
218308,0.01,-0.05,1.00,-0.18,-0.06,-0.18,19.00,-5.50,38.50,53.650928,9.698432,3.60,0.37,12,3.592,0,21,-1,2,2
218410,0.01,-0.05,1.00,-0.31,-0.18,-0.12,19.00,-6.50,42.50,53.650928,9.698432,3.60,0.37,12,3.622,0,23,-2,2,2
218510,0.01,-0.05,0.99,0.12,0.12,-0.12,17.00,-5.50,44.50,53.650928,9.698432,3.60,0.37,12,3.612,0,23,-2,2,2
218610,0.01,-0.04,1.00,-0.49,-0.24,0.06,20.00,-6.50,41.50,53.650928,9.698432,3.60,0.22,12,3.602,0,22,-1,2,2
218710,0.01,-0.05,1.00,-0.18,-0.18,-0.12,20.00,-6.50,42.50,53.650928,9.698432,3.60,0.26,12,3.622,0,23,-1,2,2
218810,0.00,-0.05,1.00,-0.06,-0.18,-0.06,17.00,-6.50,41.50,53.650928,9.698432,3.60,0.26,12,3.642,0,26,-1,2,2
218910,0.01,-0.04,1.00,-0.12,-0.06,-0.06,20.00,-5.50,48.50,53.650928,9.698432,3.60,0.26,12,3.632,0,20,-1,2,2
219010,0.01,-0.05,0.99,0.00,-0.06,0.00,21.00,-3.50,46.50,53.650928,9.698432,3.60,0.26,12,3.612,0,14,-1,2,2
219110,0.01,-0.05,1.00,-0.06,-0.12,0.06,14.00,-6.50,39.50,53.650928,9.698432,3.60,0.26,12,3.632,0,30,-1,2,2
219210,0.01,-0.05,1.00,-0.31,-0.18,-0.06,21.00,-5.50,44.50,53.650928,9.698432,3.60,0.26,12,3.632,0,19,-1,2,2
219310,0.01,-0.05,1.00,-0.12,-0.06,-0.06,18.00,-5.50,39.50,53.650928,9.698432,3.60,0.26,12,3.622,0,21,-2,2,2
219410,0.01,-0.05,1.00,-0.43,-0.24,-0.12,21.00,-4.50,46.50,53.650928,9.698432,3.60,0.26,12,3.652,0,17,-2,2,2
219510,0.00,-0.05,1.00,-0.12,-0.06,0.00,18.00,-6.50,43.50,53.650928,9.698431,3.60,0.33,12,3.632,0,25,-1,2,2
219610,0.00,-0.05,1.00,-0.31,-0.24,0.00,20.00,-5.50,45.50,53.650928,9.698431,3.60,0.33,12,3.622,0,20,-2,2,2
219710,0.01,-0.03,1.00,0.00,0.06,-0.12,20.00,-6.50,42.50,53.650928,9.698431,3.60,0.33,12,3.621,0,21,-1,2,2
219823,0.01,-0.05,0.99,-0.43,-0.24,0.00,21.00,-6.50,43.50,53.650928,9.698431,3.60,0.33,12,3.613,0,22,-1,2,2
219923,0.01,-0.04,1.00,0.24,0.06,-0.06,21.00,-4.50,41.50,53.650928,9.698431,3.60,0.33,12,3.622,0,15,-1,2,2
220030,0.01,-0.05,1.00,-0.06,-0.06,-0.06,21.00,-5.50,43.50,53.650928,9.698431,3.60,0.33,12,3.602,0,19,-1,2,2
220130,0.01,-0.05,1.00,0.06,-0.06,-0.12,20.00,-7.50,41.50,53.650928,9.698431,3.60,0.33,12,3.622,0,25,-2,2,2
220230,0.01,-0.05,1.00,-0.12,-0.12,0.00,18.00,-6.50,41.50,53.650928,9.698431,3.60,0.33,12,3.632,0,24,-1,2,2
220330,0.00,-0.04,1.00,0.06,-0.12,0.00,16.00,-7.50,45.50,53.650928,9.698431,3.60,0.33,12,3.632,0,30,-1,2,2
220430,0.00,-0.05,0.99,0.06,-0.18,0.06,16.00,-5.50,44.50,53.650928,9.698431,3.60,0.28,12,3.562,0,25,-1,2,2
220531,0.01,-0.04,1.00,-0.06,-0.18,0.00,20.00,-8.50,44.50,53.650928,9.698431,3.60,0.28,12,3.612,0,27,-2,2,2
220631,0.01,-0.05,1.00,-0.12,-0.18,0.00,18.00,-4.50,41.50,53.650928,9.698431,3.60,0.28,12,3.612,0,19,-1,2,2
220731,0.01,-0.04,1.00,-0.31,-0.12,-0.06,20.00,-6.50,36.50,53.650928,9.698431,3.60,0.28,12,3.382,0,21,-1,2,2
220832,0.01,-0.04,1.00,-0.12,-0.12,-0.06,20.00,-5.50,41.50,53.650928,9.698431,3.60,0.28,12,3.612,0,19,-1,2,2
220932,0.00,-0.05,1.00,-0.18,-0.12,-0.06,20.00,-5.50,37.50,53.650928,9.698431,3.60,0.28,12,3.542,0,19,-1,2,2
221032,0.01,-0.04,1.00,-0.37,-0.18,0.00,17.00,-5.50,44.50,53.650928,9.698431,3.60,0.28,12,3.602,0,22,-1,2,2
221146,0.00,-0.05,1.00,-0.06,0.00,-0.06,20.00,-7.50,46.50,53.650928,9.698431,3.60,0.28,12,3.582,0,25,-1,2,2
221246,0.00,-0.04,1.00,-0.12,-0.06,0.06,19.00,-6.50,39.50,53.650928,9.698431,3.60,0.28,12,3.562,0,23,-1,2,2
221346,0.00,-0.05,1.00,-0.31,-0.24,-0.12,20.00,-5.50,38.50,53.650928,9.698431,3.60,0.11,12,3.522,0,19,-2,2,2
221447,0.01,-0.04,1.00,0.85,0.43,0.06,19.00,-6.50,40.50,53.650928,9.698431,3.60,0.20,12,3.632,0,22,-1,2,2
221547,0.01,-0.03,1.00,-0.06,-0.06,0.00,20.00,-5.50,42.50,53.650928,9.698431,3.60,0.20,12,3.611,0,18,-2,2,2
221647,0.01,-0.03,1.00,-0.06,-0.12,-0.06,20.00,-8.50,42.50,53.650928,9.698431,3.60,0.20,12,3.551,0,26,-2,2,2
221748,0.00,-0.04,1.00,0.06,-0.06,-0.06,20.00,-6.50,44.50,53.650928,9.698431,3.60,0.20,12,3.612,0,22,-2,2,2
221848,0.01,-0.04,1.00,0.00,-0.18,0.00,20.00,-5.50,42.50,53.650928,9.698431,3.60,0.20,12,3.642,0,19,-2,2,2
221950,0.01,-0.04,1.00,0.00,-0.06,-0.06,18.00,-6.50,42.50,53.650928,9.698431,3.60,0.20,12,3.572,0,24,-1,2,2
222050,0.01,-0.04,1.00,-0.06,-0.06,-0.06,15.00,-7.50,45.50,53.650928,9.698431,3.60,0.20,12,3.592,0,31,-1,2,2
222150,0.01,-0.04,1.00,0.31,0.18,-0.12,16.00,-5.50,42.50,53.650928,9.698431,3.60,0.20,12,3.612,0,24,-2,2,2
222313,-0.00,-0.05,1.00,0.18,0.06,0.00,18.00,-6.50,42.50,53.650928,9.698431,3.60,0.13,12,3.672,0,25,-2,2,2
222413,0.01,-0.05,0.99,-0.12,-0.12,0.00,19.00,-6.50,41.50,53.650928,9.698431,3.60,0.15,12,3.592,0,23,-1,2,2
222513,0.01,-0.04,1.00,-0.43,-0.18,-0.06,19.00,-6.50,46.50,53.650928,9.698431,3.60,0.15,12,3.632,0,23,-1,2,2
222613,0.00,-0.04,0.99,-0.18,-0.12,-0.06,18.00,-6.50,45.50,53.650928,9.698431,3.60,0.15,12,3.612,0,24,-2,2,2
222713,0.00,-0.04,1.00,-0.31,-0.18,-0.06,22.00,-6.50,42.50,53.650928,9.698431,3.60,0.20,12,3.532,0,20,-2,2,2
222813,0.00,-0.04,1.00,-0.31,-0.18,-0.12,21.00,-5.50,43.50,53.650928,9.698431,3.60,0.20,12,3.622,0,19,-1,2,2
222913,0.01,-0.04,1.00,0.00,0.00,-0.06,20.00,-5.50,41.50,53.650928,9.698431,3.60,0.20,12,3.612,0,19,-2,2,2
223014,0.01,-0.04,1.00,-0.18,-0.06,0.06,17.00,-5.50,45.50,53.650928,9.698431,3.60,0.20,12,3.572,0,22,-2,2,2
223114,0.00,-0.04,1.00,0.00,-0.18,-0.06,21.00,-6.50,42.50,53.650928,9.698431,3.60,0.20,12,3.612,0,21,-2,2,2
223214,0.00,-0.04,1.00,0.00,0.00,0.00,21.00,-5.50,38.50,53.650928,9.698431,3.60,0.20,12,3.622,0,18,-1,2,2
223316,0.01,-0.04,1.00,-0.06,-0.06,-0.12,20.00,-6.50,46.50,53.650928,9.698431,3.60,0.20,12,3.602,0,22,-1,2,2
223416,0.00,-0.04,1.00,-0.37,-0.12,0.00,16.00,-5.50,46.50,53.650928,9.698431,3.60,0.11,12,3.612,0,24,-1,2,2
223517,0.00,-0.05,1.00,-0.18,-0.12,-0.06,18.00,-5.50,41.50,53.650928,9.698431,3.60,0.11,12,3.592,0,22,-1,2,2
223617,0.00,-0.04,0.99,-0.18,-0.12,-0.12,20.00,-5.50,43.50,53.650928,9.698431,3.60,0.11,12,3.552,0,19,-1,2,2
223717,0.00,-0.04,1.00,-0.49,-0.24,-0.06,21.00,-6.50,44.50,53.650928,9.698431,3.60,0.11,12,3.622,0,20,-2,2,2
223817,0.00,-0.04,0.99,-0.43,-0.24,0.06,20.00,-7.50,37.50,53.650928,9.698431,3.60,0.11,12,3.602,0,23,-1,2,2
223917,0.00,-0.03,1.00,-0.37,-0.24,0.00,20.00,-6.50,43.50,53.650928,9.698431,3.60,0.11,12,3.631,0,21,-2,2,2
224017,0.00,-0.04,0.99,-0.18,0.00,-0.06,20.00,-6.50,43.50,53.650928,9.698431,3.60,0.11,12,3.492,0,21,-1,2,2
224119,0.01,-0.04,1.00,0.00,-0.06,-0.12,22.00,-6.50,44.50,53.650928,9.698431,3.60,0.11,12,3.632,0,20,-1,2,2
224219,0.00,-0.04,1.00,0.06,-0.12,0.00,21.00,-6.50,41.50,53.650928,9.698432,3.60,0.59,12,3.602,0,21,-1,2,2
224319,0.01,-0.03,0.99,0.49,0.18,-0.06,20.00,-6.50,43.50,53.650928,9.698432,3.60,0.07,12,3.641,0,21,-2,2,2
224419,0.01,-0.04,0.99,-0.12,-0.06,-0.12,16.00,-6.50,41.50,53.650928,9.698432,3.60,0.07,12,3.612,0,26,-1,2,2
224607,0.00,-0.04,1.00,-0.24,-0.18,0.00,21.00,-5.50,42.50,53.650928,9.698432,3.60,0.07,12,3.542,0,18,-1,2,2
224707,0.00,-0.04,1.00,0.00,-0.06,-0.06,14.00,-5.50,41.50,53.650928,9.698432,3.60,0.07,12,3.542,0,26,-1,2,2
224807,0.00,-0.04,0.99,0.12,0.06,-0.06,21.00,-7.50,42.50,53.650928,9.698432,3.60,0.07,12,3.622,0,23,-1,2,2
224907,-0.00,-0.03,1.00,-0.18,-0.12,0.00,21.00,-5.50,47.50,53.650928,9.698432,3.50,0.28,12,3.601,0,18,-2,2,2
225008,-0.00,-0.05,1.00,0.00,-0.18,0.00,22.00,-5.50,39.50,53.650928,9.698432,3.50,0.35,12,3.622,0,18,-1,2,2
225108,0.00,-0.04,1.00,-0.31,-0.06,-0.06,19.00,-4.50,47.50,53.650928,9.698432,3.50,0.35,12,3.542,0,17,-1,2,2
225208,0.01,-0.04,1.00,1.16,-0.06,0.24,20.00,-8.50,42.50,53.650928,9.698432,3.50,0.35,12,3.622,0,26,-2,2,2
225308,0.01,-0.03,1.00,-1.77,-0.18,-0.55,21.00,-6.50,41.50,53.650928,9.698432,3.50,0.35,12,3.561,0,19,-1,2,2
225408,0.00,-0.02,0.99,0.67,0.00,0.67,21.00,-7.50,38.50,53.650928,9.698432,3.50,0.35,12,3.661,0,21,-1,2,2
225508,0.00,-0.05,1.01,0.79,-0.06,-0.24,20.00,-7.50,45.50,53.650928,9.698432,3.50,0.35,12,3.612,0,25,-2,2,2
225609,-0.00,-0.04,1.00,-2.32,-0.18,-0.55,20.00,-6.50,44.50,53.650928,9.698432,3.50,0.35,12,3.442,0,22,-1,2,2
225709,0.01,-0.04,1.00,2.93,0.18,0.55,21.00,-5.50,46.50,53.650928,9.698432,3.50,0.35,12,3.622,0,19,-1,2,2
225809,0.00,-0.03,1.00,-0.67,-0.06,-0.18,16.00,-5.50,37.50,53.650928,9.698432,3.50,0.35,12,3.631,0,22,-1,2,2
225909,0.01,-0.03,0.99,-0.49,-0.12,-0.18,19.00,-5.50,41.50,53.650928,9.698432,3.50,0.24,12,3.601,0,18,-1,2,2
226009,0.00,-0.03,0.99,0.37,-0.06,0.06,16.00,-7.50,41.50,53.650928,9.698432,3.50,0.24,12,3.621,0,28,-2,2,2
226109,0.00,-0.04,1.00,-0.18,-0.12,-0.18,20.00,-6.50,44.50,53.650928,9.698432,3.50,0.24,12,3.572,0,22,-1,2,2
226209,0.00,-0.04,1.00,0.31,0.18,-0.06,18.00,-6.50,43.50,53.650928,9.698432,3.50,0.24,12,3.622,0,23,-1,2,2
226309,0.01,-0.04,0.99,-0.18,-0.12,0.00,20.00,-5.50,42.50,53.650928,9.698432,3.50,0.24,12,3.562,0,19,-2,2,2
226409,0.01,-0.03,1.00,0.12,-0.06,-0.06,21.00,-5.50,38.50,53.650928,9.698432,3.50,0.24,12,3.621,0,17,-1,2,2
226509,0.00,-0.04,1.00,-0.18,-0.06,-0.06,18.00,-7.50,41.50,53.650928,9.698432,3.50,0.24,12,3.602,0,27,-2,2,2
226610,0.00,-0.03,1.00,0.06,0.00,0.00,17.00,-5.50,44.50,53.650928,9.698432,3.50,0.19,12,3.621,0,21,-1,2,2
226717,0.00,-0.04,1.00,-0.18,-0.12,-0.06,17.00,-5.50,40.50,53.650928,9.698432,3.50,0.19,12,3.622,0,23,-1,2,2
226818,0.00,-0.04,1.00,0.12,0.06,0.00,19.00,-5.50,43.50,53.650928,9.698432,3.50,0.19,12,3.502,0,20,-1,2,2
226918,-0.00,-0.03,1.00,-0.31,-0.18,-0.06,17.00,-6.50,40.50,53.650928,9.698432,3.50,0.19,12,3.631,0,24,-2,2,2
227018,0.00,-0.03,0.99,0.49,-0.06,0.06,23.00,-3.50,44.50,53.650928,9.698432,3.50,0.19,12,3.601,0,11,-1,2,2
227118,-0.01,-0.06,1.00,-0.73,0.00,-0.43,19.00,-6.50,37.50,53.650928,9.698432,3.50,0.19,12,3.603,0,24,-1,2,2
227218,-0.01,-0.03,1.00,1.10,-0.12,0.73,21.00,-5.50,37.50,53.650928,9.698432,3.50,0.19,12,3.591,0,18,-1,2,2
227318,-0.00,-0.05,1.01,-0.61,-0.06,-0.79,18.00,-4.50,45.50,53.650928,9.698432,3.50,0.19,12,3.483,0,21,-2,2,2
227418,-0.01,-0.05,1.01,1.28,-0.06,0.61,18.00,-5.50,41.50,53.650928,9.698432,3.50,0.19,12,3.592,0,22,-1,2,2
227518,0.01,-0.05,1.00,-1.34,-0.12,-0.73,20.00,-9.50,48.50,53.650928,9.698432,3.50,0.09,12,3.552,0,30,-1,2,2
227618,-0.02,-0.06,1.01,0.67,0.12,0.43,20.00,-5.50,39.50,53.650928,9.698432,3.50,0.09,12,3.523,-1,21,-1,2,2
227718,-0.00,-0.04,1.00,-0.85,-0.12,-0.73,22.00,-6.50,40.50,53.650928,9.698432,3.50,0.09,12,3.542,0,20,-1,2,2
227818,-0.00,-0.03,1.01,0.00,-0.12,0.18,18.00,-6.50,44.50,53.650928,9.698432,3.50,0.09,12,3.591,0,24,-1,2,2
227918,0.01,-0.02,1.00,-0.18,-0.24,0.24,20.00,-5.50,44.50,53.650928,9.698432,3.50,0.09,12,3.671,0,17,-2,2,2
228018,-0.02,-0.04,1.01,-0.06,0.06,-0.18,20.00,-6.50,40.50,53.650928,9.698432,3.50,0.09,12,3.622,0,22,-2,2,2
228120,0.02,-0.02,1.00,1.28,-0.24,0.18,20.00,-8.50,44.50,53.650928,9.698432,3.50,0.09,12,3.611,1,24,-1,2,2
228224,0.01,-0.06,1.00,-2.14,-0.06,-0.49,21.00,-6.50,46.50,53.650928,9.698432,3.40,0.09,12,3.593,0,23,-1,2,2
228324,-0.02,-0.03,1.00,1.28,-0.24,0.31,20.00,-8.50,41.50,53.650928,9.698432,3.40,0.09,12,3.541,-1,27,-1,2,2
228424,0.01,-0.05,1.00,1.16,0.12,-0.06,18.00,-5.50,47.50,53.650928,9.698432,3.40,0.33,12,3.622,0,23,-1,2,2
228524,-0.01,-0.05,1.01,-1.46,0.00,-0.24,19.00,-5.50,38.50,53.650928,9.698432,3.40,0.56,12,3.662,0,21,-1,2,2
228624,-0.00,-0.03,1.00,0.06,0.12,0.24,19.00,-6.50,37.50,53.650928,9.698432,3.40,0.56,12,3.601,0,22,-1,2,2
228724,-0.00,-0.03,1.00,0.37,-0.37,0.00,21.00,-5.50,42.50,53.650928,9.698432,3.40,0.56,12,3.631,0,18,-1,2,2
228824,-0.01,-0.05,1.00,0.00,-0.12,-0.12,17.00,-6.50,38.50,53.650928,9.698432,3.40,0.56,12,3.602,0,26,-1,2,2
228932,-0.00,-0.04,1.01,0.12,0.06,0.12,20.00,-5.50,39.50,53.650928,9.698432,3.40,0.56,12,3.622,0,19,-1,2,2
229032,-0.00,-0.04,1.00,-0.24,-0.06,-0.18,19.00,-6.50,43.50,53.650928,9.698432,3.40,0.56,12,3.602,0,23,-1,2,2
229132,-0.00,-0.04,1.00,0.00,0.00,0.00,20.00,-3.50,39.50,53.650928,9.698432,3.40,0.56,12,3.492,0,14,-1,2,2
229232,-0.00,-0.04,1.00,-0.12,-0.06,0.00,16.00,-3.50,43.50,53.650928,9.698432,3.40,0.56,12,3.652,0,18,-1,2,2
229332,-0.00,-0.03,1.00,-0.24,-0.31,0.00,24.00,-3.50,40.50,53.650928,9.698432,3.30,0.56,12,3.611,0,11,-1,2,2
229434,0.00,-0.04,1.00,-0.06,-0.12,0.00,22.00,-6.50,46.50,53.650928,9.698432,3.30,0.09,12,3.632,0,20,-1,2,2
229534,0.00,-0.04,1.00,0.00,-0.06,-0.24,18.00,-6.50,44.50,53.650928,9.698432,3.30,0.07,12,3.542,0,24,-1,2,2
229634,0.01,-0.03,1.00,-0.06,-0.06,0.06,20.00,-4.50,40.50,53.650928,9.698432,3.30,0.06,12,3.511,0,15,-1,2,2
229736,0.01,-0.04,1.01,0.79,0.31,-0.18,21.00,-7.50,45.50,53.650928,9.698432,3.30,0.07,12,3.592,0,23,-1,2,2
229836,0.02,-0.03,1.00,-0.24,-0.12,-0.06,20.00,-6.50,40.50,53.650928,9.698432,3.30,0.07,12,3.621,1,20,-1,2,2
229950,-0.00,-0.03,0.98,1.16,0.49,0.06,18.00,-4.50,46.50,53.650928,9.698432,3.30,0.07,12,3.611,0,17,-1,2,2
230052,0.02,-0.03,1.00,0.18,0.00,-0.06,19.00,-4.50,38.50,53.650928,9.698432,3.30,0.07,12,3.611,1,16,-1,2,2
230152,-0.01,-0.03,0.98,-0.12,-0.37,-0.06,19.00,-5.50,44.50,53.650928,9.698432,3.30,0.07,12,3.611,0,19,-1,2,2
230252,0.01,-0.02,1.00,0.12,0.00,0.12,10.00,-6.50,46.50,53.650928,9.698432,3.30,0.07,12,3.611,0,35,-1,2,2
230352,-0.00,-0.04,1.00,0.37,0.12,0.12,16.00,-6.50,46.50,53.650928,9.698432,3.30,0.07,12,3.652,0,27,-1,2,2
230454,-0.01,-0.05,1.01,-0.85,-0.61,-0.12,18.00,-5.50,44.50,53.650928,9.698432,3.30,0.07,12,3.532,0,23,-1,2,2
230554,-0.01,-0.04,1.00,0.12,0.06,0.00,16.00,-6.50,49.50,53.650928,9.698431,3.30,0.07,12,3.592,0,29,-1,2,2
230654,-0.00,-0.04,1.00,-0.12,0.06,0.00,20.00,-5.50,39.50,53.650928,9.698431,3.30,0.28,12,3.482,0,19,-2,2,2
230754,-0.00,-0.04,1.00,-0.31,-0.18,-0.18,13.00,-6.50,44.50,53.650928,9.698431,3.30,0.06,12,3.612,0,32,-1,2,2
230854,0.00,-0.04,1.00,-0.06,-0.06,0.00,16.00,-3.50,37.50,53.650928,9.698431,3.30,0.39,12,3.612,0,17,-1,2,2
230954,0.00,-0.04,0.97,0.37,0.24,-0.06,16.00,-6.50,37.50,53.650928,9.698431,3.30,0.39,12,3.602,0,26,-1,2,2
231054,0.01,-0.04,0.99,-0.18,-0.12,-0.06,17.00,-3.50,41.50,53.650928,9.698431,3.30,0.39,12,3.662,0,16,-1,2,2
231154,0.00,-0.03,1.00,-0.06,0.00,-0.06,14.00,-6.50,38.50,53.650928,9.698431,3.30,0.39,12,3.501,0,28,-1,2,2
231254,0.00,-0.04,1.01,-0.06,-0.06,-0.12,20.00,-5.50,43.50,53.650928,9.698431,3.30,0.39,12,3.612,0,19,-1,2,2
231355,0.01,-0.03,1.05,-0.49,-0.37,-0.06,21.00,-4.50,42.50,53.650928,9.698431,3.30,0.39,12,3.571,0,15,-1,2,2
231455,-0.00,-0.04,1.00,0.24,0.00,-0.06,20.00,-7.50,41.50,53.650928,9.698432,3.40,0.39,12,3.622,0,24,-1,2,2
231555,0.00,-0.03,1.01,-0.18,-0.12,-0.12,20.00,-7.50,44.50,53.650928,9.698432,3.40,0.65,12,3.631,0,23,-1,2,2
231655,0.00,-0.04,1.00,0.06,-0.06,0.00,21.00,-3.50,43.50,53.650928,9.698432,3.40,0.65,12,3.562,0,13,-1,2,2
231755,0.00,-0.04,1.00,0.00,-0.06,-0.06,16.00,-6.50,41.50,53.650928,9.698432,3.40,0.65,12,3.452,0,27,-1,2,2
231855,0.00,-0.03,1.00,-0.06,0.00,0.06,17.00,-6.50,41.50,53.650928,9.698432,3.40,0.65,12,3.641,0,24,-1,2,2
231956,0.00,-0.04,1.00,0.00,-0.06,-0.06,20.00,-6.50,42.50,53.650928,9.698432,3.40,0.65,12,3.602,0,22,-2,2,2
232056,0.00,-0.04,1.00,0.00,0.00,-0.12,17.00,-7.50,44.50,53.650928,9.698432,3.40,0.65,12,3.562,0,28,-2,2,2
232156,0.00,-0.04,1.00,-0.06,-0.06,-0.06,20.00,-5.50,44.50,53.650928,9.698432,3.40,0.65,12,3.572,0,19,-1,2,2
232286,0.00,-0.04,1.00,-0.06,-0.12,-0.06,23.00,-5.50,44.50,53.650928,9.698432,3.30,0.41,12,3.692,0,17,-1,2,2
232386,0.00,-0.04,1.00,-0.06,-0.06,0.00,16.00,-5.50,46.50,53.650928,9.698432,3.30,0.41,12,3.502,0,24,-2,2,2
232486,0.00,-0.04,1.00,-0.18,-0.12,0.00,19.00,-5.50,40.50,53.650928,9.698432,3.30,0.37,12,3.632,0,20,-1,2,2
232586,0.00,-0.04,1.00,0.00,0.00,0.00,18.00,-5.50,46.50,53.650928,9.698432,3.30,0.30,12,3.602,0,22,-1,2,2
232697,0.00,-0.04,1.00,-0.12,-0.06,-0.06,20.00,-7.50,41.50,53.650928,9.698432,3.30,0.30,12,3.622,0,24,-1,2,2
232797,0.00,-0.04,1.00,0.00,-0.06,-0.06,20.00,-5.50,42.50,53.650928,9.698432,3.30,0.30,12,3.642,0,19,-1,2,2
232897,0.00,-0.04,1.00,-0.12,-0.12,-0.06,21.00,-5.50,44.50,53.650928,9.698432,3.30,0.30,12,3.622,0,18,-1,2,2
232997,0.00,-0.04,1.00,-0.06,-0.06,0.00,21.00,-5.50,43.50,53.650928,9.698432,3.30,0.30,12,3.612,0,18,-1,2,2
233097,0.00,-0.04,1.00,-0.06,-0.06,-0.06,19.00,-5.50,39.50,53.650928,9.698432,3.30,0.30,12,3.612,0,19,-1,2,2
233197,0.00,-0.03,1.00,0.06,0.00,-0.06,20.00,-5.50,39.50,53.650928,9.698432,3.30,0.30,12,3.431,0,18,-1,2,2
233297,0.00,-0.04,1.00,0.06,0.00,-0.06,18.00,-5.50,44.50,53.650928,9.698432,3.30,0.30,12,3.622,0,21,-2,2,2
233397,0.00,-0.04,1.00,0.06,0.06,-0.06,21.00,-5.50,47.50,53.650928,9.698432,3.30,0.11,12,3.472,0,18,-1,2,2
233497,0.01,-0.04,1.00,0.00,-0.12,0.00,18.00,-5.50,45.50,53.650928,9.698432,3.30,0.37,12,3.552,0,21,-1,2,2
233597,0.01,-0.03,1.00,0.06,-0.06,-0.06,25.00,-7.50,41.50,53.650928,9.698432,3.30,0.37,12,3.601,0,19,-1,2,2
233697,0.00,-0.04,1.00,0.06,-0.12,0.06,18.00,-6.50,43.50,53.650928,9.698432,3.30,0.37,12,3.552,0,23,-1,2,2
233797,-0.00,-0.04,1.00,-0.06,-0.12,0.00,20.00,-7.50,44.50,53.650928,9.698432,3.30,0.37,12,3.622,0,24,-1,2,2
233897,0.00,-0.04,1.00,0.00,0.00,0.06,14.00,-8.50,40.50,53.650928,9.698432,3.30,0.37,12,3.392,0,35,-1,2,2
233997,0.00,-0.04,1.00,-0.06,0.00,0.00,19.00,-8.50,37.50,53.650928,9.698432,3.40,0.37,12,3.612,0,27,-1,2,2
234097,0.00,-0.03,1.00,-0.06,-0.06,-0.12,21.00,-5.50,40.50,53.650928,9.698432,3.40,0.37,12,3.481,0,18,-1,2,2
234197,0.00,-0.04,1.00,-0.06,-0.12,0.00,14.00,-7.50,49.50,53.650928,9.698432,3.40,0.19,12,3.522,0,33,-1,2,2
234297,0.00,-0.04,1.00,0.00,-0.06,-0.12,19.00,-5.50,44.50,53.650928,9.698432,3.40,0.19,12,3.522,0,20,-1,2,2
234397,0.01,-0.04,1.01,0.00,0.12,0.06,19.00,-5.50,42.50,53.650928,9.698432,3.40,0.28,12,3.552,0,20,-2,2,2
234497,0.01,-0.06,1.00,-1.34,-0.18,-0.55,21.00,-6.50,42.50,53.650928,9.698432,3.40,0.28,12,3.403,0,22,-1,2,2
234597,0.00,-0.02,0.99,0.43,0.00,0.18,20.00,-6.50,44.50,53.650928,9.698432,3.40,0.28,12,3.530,0,19,-1,2,2
234698,0.01,-0.07,1.01,0.06,-0.06,-0.31,19.00,-5.50,37.50,53.650928,9.698432,3.40,0.28,12,3.613,0,22,-1,2,2
234798,-0.01,-0.03,0.99,-2.20,-0.06,-0.37,22.00,-6.50,39.50,53.650928,9.698432,3.40,0.28,12,3.611,0,19,-1,2,2
234898,0.02,-0.03,0.99,3.85,0.12,0.55,22.00,-8.50,43.50,53.650928,9.698433,3.40,0.28,12,3.451,1,23,-1,2,2
234998,0.05,-0.01,0.99,-2.69,-0.06,-0.12,18.00,-5.50,45.50,53.650928,9.698432,3.40,0.31,12,3.640,2,16,-1,2,2
235098,0.04,-0.01,0.98,2.20,-0.18,0.00,21.00,-5.50,44.50,53.650928,9.698432,3.40,0.31,12,3.540,2,14,-1,2,2
235198,0.02,-0.06,1.00,-2.87,-0.24,-0.73,16.00,-4.50,42.50,53.650928,9.698432,3.40,0.31,12,3.583,0,22,-2,2,2
235298,-0.03,-0.02,1.01,-0.92,0.06,-0.06,15.00,-5.50,39.50,53.650928,9.698432,3.40,0.31,12,3.571,-1,24,-1,2,2
235398,-0.00,-0.10,1.00,1.34,-0.37,-0.24,19.00,-6.50,41.50,53.650928,9.698432,3.40,0.31,12,3.595,0,29,-2,2,2
235501,-0.04,-0.06,1.00,-2.99,0.06,-0.49,20.00,-4.50,48.50,53.650928,9.698432,3.40,0.31,12,3.473,-2,22,-1,2,2
235618,0.00,-0.01,0.98,0.31,-0.12,-0.43,16.00,-7.50,38.50,53.650928,9.698432,3.40,0.31,12,3.590,0,26,-1,2,2
235718,-0.01,-0.13,1.00,-1.71,-0.24,-0.12,19.00,-5.50,44.50,53.650928,9.698432,3.40,0.31,12,3.617,0,31,-1,2,2
235818,-0.05,-0.02,1.01,0.37,-0.06,-0.49,21.00,-4.50,43.50,53.650925,9.698433,3.30,0.31,12,3.550,-2,15,-2,2,2
235918,0.02,-0.04,0.99,-1.22,-0.73,-0.18,20.00,-5.50,44.50,53.650925,9.698432,3.30,0.46,12,3.472,1,19,-1,2,2
236018,-0.05,0.02,0.99,4.27,0.18,-0.24,16.00,-4.50,41.50,53.650925,9.698432,3.30,0.46,12,3.62-1,-2,13,-1,2,2
236118,0.03,-0.02,0.98,-0.67,-0.18,-0.43,14.00,-5.50,44.50,53.650925,9.698432,3.30,0.46,12,3.541,1,22,-1,2,2
236218,-0.01,-0.03,1.00,-3.48,0.06,0.00,21.00,-9.50,44.50,53.650925,9.698432,3.30,0.46,12,3.611,0,27,-1,2,2
236318,0.01,-0.04,1.00,3.48,0.00,0.43,18.00,-5.50,41.50,53.650925,9.698432,3.30,0.46,12,3.542,0,21,-1,2,2
236418,0.02,-0.01,0.99,-2.56,-0.06,-0.06,20.00,-4.50,43.50,53.650925,9.698432,3.30,0.46,12,3.590,1,13,-1,2,2
236518,0.04,0.03,0.97,1.40,-0.12,-0.06,21.00,-8.50,42.50,53.650925,9.698432,3.30,0.46,12,3.62-1,2,18,-2,2,2
236618,-0.01,-0.11,1.00,0.00,-0.12,-0.31,20.00,-6.50,46.50,53.650925,9.698433,3.30,0.46,12,3.596,0,30,-1,2,2
236755,0.02,0.01,1.01,1.16,0.24,0.24,23.00,-7.50,39.50,53.650925,9.698433,3.30,0.19,12,3.460,1,16,-1,2,2
236855,0.01,-0.03,1.00,0.12,0.00,0.12,22.00,-6.50,44.50,53.650925,9.698433,3.30,0.19,12,3.581,0,19,-1,2,2
236955,0.01,-0.02,1.00,0.37,-0.06,-0.12,20.00,-4.50,48.50,53.650925,9.698433,3.30,0.19,12,3.541,0,15,-1,2,2
237055,0.00,-0.03,0.97,0.37,-0.12,0.00,20.00,-5.50,39.50,53.650925,9.698433,3.30,0.04,12,3.601,0,18,-1,2,2
237155,0.01,-0.04,1.02,0.00,-0.12,0.06,20.00,-7.50,44.50,53.650925,9.698433,3.30,0.04,12,3.472,0,24,-1,2,2
237255,0.01,-0.04,1.07,0.06,0.12,-0.06,20.00,-5.50,48.50,53.650925,9.698433,3.30,0.04,12,3.622,0,19,-1,2,2
237355,0.01,-0.03,1.01,-0.06,-0.12,0.00,15.00,-6.50,42.50,53.650925,9.698433,3.30,0.04,12,3.551,0,27,-1,2,2
237455,0.00,-0.05,1.02,-0.37,-0.06,0.00,20.00,-5.50,41.50,53.650925,9.698433,3.30,0.04,12,3.592,0,20,-1,2,2
237555,-0.00,-0.04,1.00,-0.18,-0.06,-0.06,21.00,-6.50,44.50,53.650925,9.698433,3.30,0.04,12,3.562,0,21,-1,2,2
237655,-0.00,-0.03,1.00,-0.12,0.00,-0.12,21.00,-7.50,40.50,53.650925,9.698433,3.30,0.04,12,3.521,0,22,-1,2,2
237755,0.00,-0.04,0.99,-0.06,0.00,0.00,16.00,-8.50,40.50,53.650925,9.698433,3.40,0.04,12,3.602,0,32,-1,2,2
237855,-0.00,-0.04,1.00,-0.06,-0.06,-0.06,17.00,-6.50,42.50,53.650925,9.698433,3.40,0.33,12,3.542,0,25,-1,2,2
237955,0.00,-0.04,1.00,0.00,-0.06,-0.12,20.00,-7.50,47.50,53.650925,9.698433,3.40,0.33,12,3.632,0,24,-1,2,2
238056,0.00,-0.04,1.00,0.00,-0.06,-0.06,16.00,-6.50,43.50,53.650925,9.698433,3.40,0.33,12,3.622,0,26,-1,2,2
238156,0.00,-0.04,1.00,-0.06,-0.12,0.00,16.00,-5.50,48.50,53.650925,9.698433,3.40,0.33,12,3.682,0,24,-1,2,2
238256,0.00,-0.04,1.00,0.06,-0.12,-0.06,21.00,-6.50,43.50,53.650925,9.698433,3.40,0.33,12,3.632,0,21,-1,2,2
238356,0.00,-0.04,1.00,-0.06,0.00,-0.06,22.00,-6.50,44.50,53.650925,9.698433,3.40,0.33,12,3.552,0,20,-1,2,2
238456,0.00,-0.04,1.00,0.06,0.00,0.00,18.00,-6.50,44.50,53.650925,9.698433,3.40,0.33,12,3.662,0,24,-1,2,2
238556,0.00,-0.04,1.00,0.00,0.00,0.00,18.00,-6.50,41.50,53.650925,9.698433,3.40,0.33,12,3.632,0,24,-1,2,2
238657,0.00,-0.04,1.00,-0.06,0.00,-0.06,22.00,-5.50,41.50,53.650925,9.698433,3.40,0.09,12,3.622,0,17,-1,2,2
238764,0.00,-0.04,1.00,0.00,0.00,-0.06,20.00,-7.50,48.50,53.650925,9.698433,3.40,0.09,12,3.572,0,24,-1,2,2
238864,0.00,-0.04,1.00,-0.06,-0.06,0.00,20.00,-6.50,41.50,53.650925,9.698433,3.40,0.09,12,3.542,0,22,-1,2,2
238969,0.00,-0.03,1.00,-0.18,-0.18,0.00,17.00,-4.50,41.50,53.650925,9.698433,3.40,0.09,12,3.611,0,18,-1,2,2
239069,-0.00,-0.05,1.00,0.00,0.00,-0.06,22.00,-5.50,42.50,53.650925,9.698433,3.40,0.09,12,3.642,0,18,-1,2,2
239169,0.00,-0.06,1.00,0.24,-0.12,-0.06,24.00,-4.50,34.50,53.650925,9.698433,3.40,0.09,12,3.483,0,15,-1,2,2
239269,0.00,-0.03,1.02,-0.18,0.00,0.06,23.00,-4.50,42.50,53.650925,9.698433,3.40,0.09,12,3.621,0,13,-2,2,2
239369,0.00,-0.05,1.00,-0.12,-0.18,0.00,21.00,-6.50,42.50,53.650925,9.698433,3.40,0.09,12,3.622,0,21,-1,2,2
239469,0.00,-0.03,1.01,-0.12,-0.06,-0.06,22.00,-5.50,46.50,53.650925,9.698434,3.40,0.09,12,3.621,0,17,-1,2,2
239569,0.00,-0.04,1.00,-0.06,0.00,-0.12,18.00,-6.50,43.50,53.650925,9.698434,3.40,0.37,12,3.612,0,24,-1,2,2
239669,0.00,-0.04,1.00,-0.06,-0.06,-0.06,17.00,-5.50,43.50,53.650925,9.698434,3.40,0.37,12,3.552,0,22,-2,2,2
239769,0.00,-0.04,1.00,0.00,-0.12,-0.06,21.00,-5.50,43.50,53.650925,9.698434,3.40,0.37,12,3.562,0,18,-1,2,2
239869,0.00,-0.03,0.99,-0.06,-0.12,-0.12,18.00,-6.50,41.50,53.650925,9.698434,3.40,0.37,12,3.551,0,23,-1,2,2
239969,-0.00,-0.04,1.00,-0.06,0.06,0.00,19.00,-4.50,42.50,53.650925,9.698434,3.40,0.37,12,3.642,0,17,-1,2,2
240126,-0.00,-0.04,1.00,0.06,-0.06,-0.06,18.00,-6.50,43.50,53.650925,9.698434,3.40,0.37,12,3.622,0,24,-1,2,2
240226,0.00,-0.04,1.00,-0.06,-0.06,-0.12,18.00,-7.50,49.50,53.650925,9.698434,3.40,0.37,12,3.582,0,27,-1,2,2
240326,-0.00,-0.03,0.99,0.00,-0.06,0.00,17.00,-5.50,46.50,53.650925,9.698434,3.40,0.37,12,3.641,0,22,-1,2,2
240426,0.00,-0.03,1.00,-0.06,0.00,-0.06,20.00,-6.50,44.50,53.650925,9.698434,3.40,0.37,12,3.471,0,21,-1,2,2
240526,0.00,-0.04,1.00,-0.06,-0.06,0.00,17.00,-5.50,46.50,53.650925,9.698434,3.40,0.37,12,3.612,0,23,-1,2,2
240626,0.00,-0.04,1.00,-0.06,0.00,-0.06,17.00,-7.50,43.50,53.650925,9.698434,3.40,0.37,12,3.632,0,28,-1,2,2
240726,0.00,-0.04,1.00,-0.06,0.00,-0.06,16.00,-4.50,44.50,53.650925,9.698435,3.40,0.37,12,3.632,0,20,-1,2,2
240826,0.00,-0.04,1.00,0.06,-0.06,0.00,19.00,-7.50,42.50,53.650925,9.698435,3.40,0.11,12,3.622,0,25,-1,2,2
240926,0.00,-0.03,1.00,0.00,-0.06,0.00,18.00,-4.50,41.50,53.650925,9.698435,3.40,0.11,12,3.621,0,18,-1,2,2
241026,-0.00,-0.04,1.00,0.00,0.00,-0.06,18.00,-6.50,44.50,53.650925,9.698435,3.40,0.11,12,3.522,0,24,-1,2,2
241131,0.01,-0.04,1.00,0.06,-0.06,0.00,18.00,-3.50,43.50,53.650925,9.698435,3.40,0.11,12,3.572,0,15,-1,2,2
241231,0.02,-0.03,1.00,0.00,0.06,0.00,17.00,-5.50,46.50,53.650925,9.698435,3.40,0.11,12,3.481,1,20,-1,2,2
241331,0.00,-0.04,1.00,-0.12,0.06,-0.12,18.00,-5.50,44.50,53.650925,9.698435,3.40,0.11,12,3.642,0,21,-1,2,2
241431,0.00,-0.03,1.00,0.00,-0.18,0.00,20.00,-5.50,46.50,53.650925,9.698435,3.40,0.11,12,3.601,0,18,-1,2,2
241531,-0.00,-0.04,0.99,-0.12,-0.12,-0.06,20.00,-6.50,42.50,53.650925,9.698435,3.40,0.11,12,3.632,0,22,-1,2,2
241631,0.00,-0.04,1.00,-0.12,-0.06,-0.06,20.00,-5.50,39.50,53.650925,9.698435,3.40,0.11,12,3.612,0,19,-1,2,2
241731,0.00,-0.03,1.00,-0.06,-0.06,0.00,11.00,-5.50,46.50,53.650925,9.698435,3.40,0.11,12,3.651,0,32,-1,2,2
241831,0.00,-0.03,1.00,0.00,0.00,-0.06,17.00,0.50,44.50,53.650925,9.698435,3.40,0.11,12,3.571,0,3,-1,2,2
241931,-0.00,-0.05,1.00,-0.12,-0.18,-0.06,15.00,3.50,47.50,53.650925,9.698435,3.40,0.11,12,3.532,0,-4,-1,2,2
