timestamp,accX,accY,accZ,gyroX,gyroY,gyroZ,magX,magY,magZ,latitude,longitude,gpsAltitude,Speed,SatCount,roll,pitch,yaw,pressure,temperature,paltitude
233181,-0.00,-0.00,1.00,-0.12,0.06,0.00,-2.50,11.50,47.00,0.000000,0.000000,0.00,0.00,5,3.980,0,-17,-28,5,3
235618,0.00,-0.00,1.00,0.31,0.06,0.12,-3.50,12.50,45.00,0.000000,0.000000,0.00,0.00,5,3.990,0,-18,-28,5,3
235721,0.00,-0.00,1.00,0.06,0.00,0.06,-0.50,13.50,46.00,53.650913,9.698381,4.40,0.43,12,3.990,0,-18,-28,5,3
235821,0.00,-0.00,1.00,-0.37,0.00,0.00,-2.50,14.50,37.00,53.650913,9.698381,4.40,0.52,12,4.010,0,-21,-28,5,3
235921,-0.00,-0.00,1.00,-0.06,-0.06,0.00,-2.50,10.50,46.00,53.650913,9.698381,4.40,0.52,12,3.920,0,-27,-28,5,3
236021,-0.00,-0.00,1.00,0.12,0.06,0.06,-4.50,10.50,43.00,53.650913,9.698381,4.40,0.52,12,3.860,0,-41,-28,5,3
236121,0.00,-0.00,1.00,0.24,0.12,0.00,-1.50,10.50,44.00,53.650913,9.698380,4.40,0.15,12,3.860,0,-61,-28,5,3
236221,-0.00,-0.00,1.00,0.37,0.06,0.18,-1.50,10.50,46.00,53.650913,9.698380,4.40,0.06,12,3.940,0,-83,-28,5,3
236321,0.00,-0.00,1.00,0.06,0.00,-0.06,-4.50,12.50,41.00,53.650913,9.698380,4.40,0.19,12,3.980,0,-106,-28,5,3
236423,-0.00,-0.00,1.00,-0.24,0.00,-0.12,-1.50,10.50,40.00,53.650913,9.698380,4.40,0.15,12,3.950,0,-113,-28,5,3
236523,-0.00,-0.00,1.00,-0.24,0.00,-0.18,-1.50,12.50,45.00,53.650913,9.698380,4.40,0.09,12,4.030,0,-113,-28,5,3
236624,-0.00,-0.00,1.00,0.00,0.00,0.00,-1.50,11.50,44.00,53.650913,9.698380,4.40,0.06,12,3.940,0,-109,-28,5,3
236724,-0.00,-0.00,1.00,0.06,0.06,0.00,-3.50,10.50,43.00,53.650913,9.698380,4.40,0.06,12,3.940,0,-111,-28,5,3
236824,-0.00,-0.01,1.00,0.12,0.00,0.06,-2.50,11.50,43.00,53.650913,9.698380,4.40,0.04,12,3.930,0,-108,-28,5,3
236924,-0.00,-0.00,1.00,-0.12,0.12,0.06,-3.50,11.50,44.00,53.650913,9.698380,4.40,0.04,12,3.860,0,-108,-28,5,3
237024,-0.00,-0.01,1.00,-0.18,0.12,0.00,-3.50,11.50,45.00,53.650913,9.698380,4.40,0.06,12,3.930,0,-108,-28,5,3
237124,-0.00,0.00,1.00,-0.43,0.06,0.00,-0.50,13.50,44.00,53.650913,9.698380,4.40,0.02,12,3.960,0,-97,-28,5,3
237224,-0.00,-0.00,1.00,-0.18,0.06,0.00,-1.50,8.50,45.00,53.650913,9.698380,4.40,0.02,12,3.970,0,-98,-28,5,3
237324,-0.00,-0.00,1.00,0.18,0.12,0.00,-2.50,7.50,45.00,53.650913,9.698380,4.40,0.02,12,3.880,0,-105,-28,5,3
237424,-0.00,-0.01,1.00,0.24,0.00,0.12,-3.50,12.50,40.00,53.650913,9.698380,4.40,0.09,12,3.970,0,-106,-28,5,3
237524,-0.00,-0.00,1.00,0.00,0.00,0.06,-4.50,12.50,40.00,53.650913,9.698380,4.40,0.09,12,3.900,0,-109,-28,5,3
237624,-0.00,-0.00,1.00,-0.37,0.06,0.06,-3.50,10.50,46.00,53.650913,9.698380,4.40,0.11,12,3.860,0,-109,-28,5,3
237799,-0.00,-0.00,1.00,0.43,0.12,0.06,-5.50,12.50,39.00,53.650913,9.698380,4.40,0.11,12,3.940,0,-113,-28,5,3
237899,0.00,-0.00,1.00,0.79,0.12,0.06,-0.50,10.50,46.00,53.650913,9.698380,4.40,0.11,12,3.990,0,-97,-28,5,3
237999,-0.00,-0.01,1.00,1.16,0.12,-0.06,-2.50,11.50,42.00,53.650913,9.698380,4.40,0.11,12,3.970,0,-99,-28,5,3
238099,-0.00,-0.01,1.00,0.67,-0.06,0.00,-3.50,10.50,40.00,53.650913,9.698380,4.40,0.11,12,3.920,0,-106,-28,5,3
238200,-0.00,-0.01,1.00,-0.98,-0.12,-0.06,-4.50,10.50,45.00,53.650913,9.698380,4.40,0.11,12,3.971,0,-114,-28,5,3
238300,-0.00,-0.00,1.00,-1.53,-0.18,0.12,-2.50,11.50,41.00,53.650913,9.698380,4.40,0.15,12,4.050,0,-106,-28,5,3
238400,-0.00,0.00,1.00,-0.61,0.06,0.00,-2.50,12.50,42.00,53.650913,9.698380,4.40,0.11,12,3.970,0,-102,-28,5,3
238500,-0.00,-0.00,1.00,0.49,0.12,0.06,-0.50,9.50,42.00,53.650913,9.698380,4.50,0.17,12,3.950,0,-94,-28,5,3
238600,-0.00,-0.00,1.00,0.85,0.24,0.00,-1.50,10.50,43.00,53.650913,9.698380,4.50,0.13,12,3.910,0,-97,-28,5,3
238700,-0.00,-0.01,1.00,0.73,0.12,0.06,-1.50,11.50,41.00,53.650913,9.698380,4.50,0.15,12,3.970,0,-97,-28,5,3
238800,-0.00,-0.00,1.00,0.31,0.06,0.06,-3.50,10.50,43.00,53.650913,9.698380,4.50,0.11,12,3.930,0,-107,-28,5,3
238900,-0.00,-0.01,1.00,-0.12,0.06,-0.06,-1.50,11.50,43.00,53.650913,9.698380,4.50,0.11,12,3.980,0,-100,-28,5,3
239000,-0.00,-0.01,1.00,-0.73,0.00,0.00,-2.50,12.50,43.00,53.650913,9.698380,4.50,0.11,12,3.960,0,-101,-28,5,3
239100,-0.00,-0.00,1.00,-0.98,-0.06,0.00,-3.50,10.50,44.00,53.650913,9.698380,4.50,0.11,12,3.890,0,-108,-28,5,3
239200,-0.00,-0.00,1.00,-0.37,-0.06,0.00,-2.50,12.50,43.00,53.650913,9.698380,4.50,0.19,12,3.970,0,-102,-28,5,3
239300,-0.00,0.00,1.00,0.00,0.00,0.00,-2.50,10.50,44.00,53.650913,9.698380,4.50,0.07,12,3.920,0,-103,-28,5,3
239400,-0.00,-0.00,1.00,0.37,0.06,0.06,-2.50,12.50,39.00,53.650913,9.698380,4.50,0.17,12,3.960,0,-101,-28,5,3
239500,0.00,-0.00,1.00,0.98,0.18,0.06,-4.50,11.50,48.00,53.650913,9.698380,4.50,0.15,12,3.860,0,-110,-28,5,3
239600,-0.00,-0.01,1.00,1.04,0.06,0.06,-3.50,12.50,44.00,53.650913,9.698380,4.50,0.11,12,3.940,0,-107,-28,5,3
239700,0.00,-0.01,1.00,-0.24,0.06,-0.06,-0.50,12.50,42.00,53.650913,9.698380,4.50,0.30,12,3.840,0,-93,-28,5,3
239812,0.00,-0.00,1.00,-0.92,0.00,0.06,-1.50,12.50,41.00,53.650913,9.698380,4.50,0.04,12,3.960,0,-95,-28,5,3
239921,-0.00,-0.00,1.00,-0.61,0.06,-0.12,-1.50,7.50,41.00,53.650913,9.698380,4.50,0.04,12,3.870,0,-101,-28,5,3
240021,-0.00,-0.00,1.00,0.31,0.06,0.06,-2.50,11.50,43.00,53.650913,9.698380,4.50,0.02,12,3.930,0,-102,-28,5,3
240121,0.00,-0.00,1.00,0.49,0.06,0.00,-4.50,11.50,38.00,53.650913,9.698379,4.50,0.02,12,3.830,0,-110,-28,5,3
240221,-0.00,-0.01,1.00,0.06,0.00,0.00,-4.50,12.50,45.00,53.650913,9.698379,4.50,0.06,12,3.900,0,-111,-28,5,3
240321,-0.00,-0.00,1.00,-0.49,0.00,0.00,-4.50,10.50,38.00,53.650913,9.698379,4.50,0.06,12,3.910,0,-113,-28,5,3
240421,-0.00,-0.00,1.00,-0.12,0.06,-0.06,-0.50,11.50,42.00,53.650913,9.698379,4.50,0.04,12,3.870,0,-94,-28,5,3
240521,-0.00,-0.00,1.00,0.67,0.00,-0.06,-0.50,12.50,43.00,53.650913,9.698379,4.50,0.15,12,3.960,0,-91,-28,5,3
240621,-0.00,-0.01,1.00,0.24,0.12,-0.06,-2.50,10.50,44.00,53.650913,9.698379,4.50,0.15,12,3.930,0,-103,-28,5,3
240721,-0.00,-0.00,1.00,-0.31,0.00,0.00,-4.50,11.50,43.00,53.650913,9.698379,4.50,0.04,12,3.970,0,-112,-28,5,3
240821,-0.00,-0.00,1.00,-0.85,0.00,0.00,-2.50,13.50,42.00,53.650913,9.698379,4.50,0.11,12,3.940,0,-101,-28,5,3
240921,-0.00,-0.00,1.00,-0.49,0.00,0.06,-2.50,11.50,37.00,53.650913,9.698379,4.50,0.04,12,3.840,0,-101,-28,5,3
241021,-0.00,0.00,1.00,0.55,0.12,0.06,-2.50,11.50,45.00,53.650913,9.698379,4.50,0.04,12,3.810,0,-102,-28,5,3
241122,-0.00,-0.00,1.00,1.04,0.18,0.00,-2.50,12.50,42.00,53.650913,9.698379,4.50,0.04,12,3.950,0,-101,-28,5,3
241222,-0.00,-0.01,1.00,0.55,0.12,-0.06,-4.50,11.50,46.00,53.650913,9.698379,4.50,0.04,12,3.980,0,-111,-28,5,3
241322,-0.00,-0.01,1.00,-0.55,0.12,-0.06,-0.50,11.50,43.00,53.650913,9.698379,4.50,0.17,12,3.970,0,-93,-28,5,3
241422,-0.00,-0.00,1.00,-0.79,0.00,-0.06,-4.50,9.50,45.00,53.650913,9.698379,4.50,0.17,12,3.970,0,-114,-28,5,3
241522,-0.00,-0.00,1.00,-0.24,0.00,0.00,-4.50,12.50,43.00,53.650913,9.698379,4.50,0.15,12,3.930,0,-110,-28,5,3
241622,-0.00,-0.00,1.00,0.55,0.00,0.06,-3.50,11.50,40.00,53.650913,9.698379,4.50,0.19,12,3.850,0,-107,-28,5,3
241722,-0.00,-0.01,1.00,0.49,0.06,0.00,-1.50,11.50,42.00,53.650913,9.698379,4.60,0.13,12,3.960,0,-98,-28,5,3
241835,-0.00,-0.01,1.00,-0.12,0.00,-0.06,-3.50,8.50,45.00,53.650913,9.698378,4.60,0.09,12,3.760,0,-112,-28,5,3
241935,-0.00,-0.01,1.00,-0.43,0.00,0.00,-2.50,12.50,44.00,53.650913,9.698378,4.60,0.04,12,3.930,0,-102,-28,5,3
242035,-0.00,-0.00,1.00,-0.18,0.00,0.00,-0.50,11.50,43.00,53.650913,9.698378,4.60,0.04,12,3.980,0,-92,-28,5,3
242149,-0.00,-0.00,1.00,0.31,0.06,0.12,-3.50,15.50,43.00,53.650913,9.698378,4.60,0.04,12,3.860,0,-102,-28,5,3
242249,-0.00,-0.01,1.00,-0.12,0.12,-0.06,-2.50,12.50,45.00,53.650913,9.698378,4.60,0.04,12,3.910,0,-102,-28,5,3
242349,-0.00,-0.00,1.00,0.06,0.06,0.00,-1.50,13.50,43.00,53.650913,9.698378,4.60,0.04,12,3.940,0,-96,-28,5,3
242449,-0.00,-0.00,1.00,0.61,0.18,0.12,-0.50,11.50,40.00,53.650913,9.698378,4.60,0.04,12,3.890,0,-92,-28,5,3
242549,-0.00,-0.00,1.00,0.49,0.06,0.06,-5.50,12.50,40.00,53.650913,9.698378,4.60,0.04,12,3.960,0,-113,-28,5,3
242649,-0.00,-0.01,1.00,0.12,0.06,0.06,-1.50,14.50,41.00,53.650913,9.698378,4.60,0.04,12,3.970,0,-97,-28,5,3
242749,0.00,-0.00,1.00,-0.18,0.00,0.06,-1.50,12.50,45.00,53.650913,9.698378,4.60,0.04,12,3.990,0,-96,-28,5,3
242849,0.00,-0.00,1.00,0.00,0.00,0.12,-3.50,12.50,49.00,53.650913,9.698378,4.60,0.04,12,3.940,0,-105,-28,5,3
242949,0.00,-0.01,1.00,-0.31,0.00,0.00,-0.50,12.50,40.00,53.650913,9.698378,4.60,0.04,12,3.950,0,-92,-28,5,3
243049,-0.00,-0.00,1.00,-1.04,-0.06,0.06,-0.50,12.50,42.00,53.650913,9.698378,4.60,0.04,12,3.960,0,-92,-28,5,3
243151,-0.00,0.00,1.00,0.55,0.06,0.06,-2.50,11.50,45.00,53.650913,9.698378,4.60,0.04,12,3.940,0,-101,-28,5,3
243251,-0.00,-0.01,1.01,1.10,0.12,0.06,-1.50,8.50,40.00,53.650913,9.698378,4.60,0.04,12,3.950,0,-100,-28,5,3
243351,-0.00,-0.01,1.00,-0.31,0.06,0.06,-4.50,15.50,43.00,53.650913,9.698378,4.60,0.04,12,3.950,0,-106,-28,5,3
243451,-0.00,-0.01,1.00,-0.61,-0.12,0.06,-1.50,12.50,42.00,53.650913,9.698378,4.60,0.04,12,3.820,0,-97,-28,5,3
243551,-0.00,-0.00,1.00,-0.37,0.00,0.00,-0.50,12.50,41.00,53.650913,9.698378,4.60,0.04,12,3.960,0,-92,-28,5,3
243651,0.00,-0.00,1.00,0.79,0.06,0.18,-2.50,10.50,41.00,53.650913,9.698378,4.60,0.04,12,3.900,0,-103,-28,5,3
243755,0.00,-0.00,1.00,0.37,0.12,0.12,-2.50,8.50,39.00,53.650913,9.698378,4.60,0.04,12,3.910,0,-106,-28,5,3
243857,0.00,-0.01,1.00,-0.49,0.00,0.00,-1.50,7.50,40.00,53.650913,9.698378,4.60,0.04,12,3.920,0,-101,-28,5,3
243957,-0.00,-0.00,1.00,-0.92,-0.06,0.00,-1.50,10.50,40.00,53.650913,9.698378,4.60,0.04,12,3.940,0,-98,-27,5,3
244057,-0.00,-0.00,1.00,-0.61,0.00,0.00,-2.50,11.50,46.00,53.650913,9.698378,4.60,0.04,12,3.950,0,-102,-28,5,3
244157,-0.00,0.00,1.00,0.73,0.06,0.06,-2.50,11.50,46.00,53.650913,9.698378,4.60,0.04,12,4.010,0,-102,-28,5,3
244257,-0.00,-0.01,1.00,1.10,0.18,0.00,-3.50,11.50,48.00,53.650913,9.698378,4.60,0.04,12,3.820,0,-107,-28,5,3
244357,-0.00,-0.01,1.00,-0.43,0.06,0.00,-2.50,9.50,47.00,53.650913,9.698378,4.60,0.04,12,3.820,0,-106,-28,5,3
244457,-0.00,-0.00,1.00,-1.46,-0.12,0.00,-3.50,12.50,44.00,53.650913,9.698378,4.60,0.04,12,3.950,0,-106,-28,5,3
244557,-0.00,0.00,1.00,-1.04,0.00,0.00,-2.50,12.50,41.00,53.650913,9.698378,4.60,0.04,12,3.840,0,-101,-28,5,3
244657,0.00,0.00,0.99,0.67,0.24,0.06,-2.50,10.50,44.00,53.650913,9.698378,4.60,0.04,12,3.850,0,-103,-28,5,3
244757,-0.00,0.00,1.00,2.50,0.24,0.12,-3.50,10.50,39.00,53.650913,9.698378,4.60,0.04,12,3.950,0,-108,-28,5,3
244857,0.00,-0.01,1.00,2.56,0.06,0.00,-4.50,12.50,45.00,53.650913,9.698378,4.60,0.04,12,3.820,0,-110,-28,5,3
244957,-0.00,-0.01,1.00,0.12,0.06,-0.18,-2.50,10.50,44.00,53.650913,9.698378,4.60,0.04,12,3.960,0,-104,-28,5,3
245057,-0.00,-0.01,1.00,-1.46,-0.06,-0.06,-2.50,10.50,42.00,53.650913,9.698378,4.60,0.04,12,3.960,0,-104,-28,5,3
245157,-0.00,-0.01,1.00,-2.08,-0.06,0.06,-1.50,13.50,45.00,53.650913,9.698378,4.60,0.04,12,3.870,0,-96,-28,5,3
245257,-0.00,0.00,1.00,-1.10,0.00,0.12,-3.50,10.50,46.00,53.650913,9.698378,4.60,0.04,12,3.910,0,-108,-28,5,3
245357,-0.00,0.00,1.00,0.92,0.12,0.12,-2.50,10.50,38.00,53.650913,9.698378,4.60,0.04,12,3.890,0,-103,-28,5,3
245488,-0.00,-0.01,1.00,1.34,0.18,-0.06,-2.50,10.50,45.00,53.650913,9.698378,4.60,0.04,12,3.440,0,-104,-28,5,3
245588,0.00,-0.01,1.00,0.31,0.00,0.12,-3.50,11.50,44.00,53.650913,9.698378,4.60,0.04,12,3.880,0,-107,-28,5,3
245694,-0.00,-0.01,1.00,-1.46,-0.12,0.00,-4.50,12.50,42.00,53.650913,9.698377,4.60,0.24,12,3.990,0,-110,-28,5,3
245794,-0.00,0.00,1.00,-2.14,-0.12,-0.06,-2.50,13.50,44.00,53.650913,9.698377,4.60,0.13,12,3.910,0,-100,-28,5,3
245906,-0.00,0.01,1.00,0.49,0.12,0.00,-2.50,12.50,44.00,53.650913,9.698377,4.60,0.13,12,3.930,0,-100,-28,5,3
246006,-0.00,-0.00,1.00,2.50,0.18,0.00,-4.50,12.50,42.00,53.650913,9.698377,4.60,0.06,12,3.960,0,-110,-28,5,3
246106,-0.00,-0.01,1.00,1.83,0.00,0.00,-4.50,11.50,44.00,53.650913,9.698377,4.60,0.11,12,3.970,0,-112,-28,5,3
246206,-0.00,-0.01,1.00,-0.55,0.00,0.06,-1.50,9.50,41.00,53.650913,9.698377,4.60,0.48,12,3.890,0,-100,-28,5,3
246306,-0.00,-0.01,1.00,-1.65,-0.12,0.00,-3.50,10.50,43.00,53.650913,9.698377,4.60,0.13,12,3.940,0,-109,-28,5,3
246406,-0.00,0.00,1.00,-0.98,-0.06,-0.06,-3.50,11.50,43.00,53.650913,9.698377,4.60,0.39,12,3.910,0,-107,-28,5,3
246506,-0.00,-0.00,1.00,0.37,0.18,0.18,-4.50,10.50,41.00,53.650913,9.698376,4.60,0.37,12,3.870,0,-113,-28,5,3
246623,-0.00,-0.00,1.00,1.83,0.12,-0.06,-0.50,12.50,43.00,53.650913,9.698377,4.60,0.13,12,3.950,0,-93,-28,5,3
246723,-0.00,-0.02,1.00,0.12,0.06,0.00,-3.50,10.50,45.00,53.650913,9.698377,4.60,0.13,12,3.941,0,-110,-28,5,3
246823,-0.00,-0.00,1.00,-1.83,-0.18,0.00,-3.50,11.50,44.00,53.650913,9.698377,4.60,0.02,12,3.880,0,-108,-28,5,3
246923,-0.01,0.00,1.00,-0.85,-0.12,0.24,-4.50,12.50,42.00,53.650913,9.698376,4.60,0.22,12,3.950,0,-110,-28,5,3
247023,-0.00,0.01,0.99,0.98,0.06,0.12,-4.50,10.50,44.00,53.650913,9.698376,4.60,0.22,12,3.860,0,-113,-28,5,3
247123,-0.01,-0.01,1.00,1.40,0.12,0.00,-3.50,8.50,41.00,53.650913,9.698376,4.60,0.13,12,3.820,0,-115,-28,5,3
247223,-0.00,-0.01,0.99,0.31,0.00,-0.06,-0.50,11.50,43.00,53.650913,9.698376,4.60,0.26,12,3.860,0,-93,-28,5,3
247323,-0.00,-0.01,1.00,-1.22,0.12,0.00,-2.50,10.50,46.00,53.650913,9.698376,4.60,0.26,12,3.970,0,-105,-28,5,3
247423,-0.00,0.00,1.00,-0.61,0.06,0.18,-3.50,10.50,40.00,53.650913,9.698376,4.60,0.26,12,3.930,0,-108,-28,5,3
247523,0.00,-0.00,0.99,0.79,0.24,0.18,1.50,10.50,43.00,53.650913,9.698376,4.70,0.26,12,3.940,0,-82,-28,5,3
247625,-0.00,-0.00,1.00,1.53,0.18,0.00,-0.50,11.50,42.00,53.650913,9.698376,4.70,0.26,12,3.950,0,-92,-28,5,3
247736,0.00,-0.01,1.00,-0.24,-0.06,0.00,-4.50,10.50,42.00,53.650913,9.698376,4.60,0.26,12,3.830,0,-114,-28,5,3
247836,-0.00,-0.01,1.00,-1.71,0.00,-0.12,-4.50,10.50,42.00,53.650913,9.698376,4.60,0.13,12,3.900,0,-114,-28,5,3
247944,-0.00,-0.00,1.00,-1.10,0.06,0.00,-4.50,10.50,43.00,53.650913,9.698376,4.70,0.20,12,3.970,0,-113,-28,5,3
248044,-0.00,0.00,1.00,0.43,0.00,0.06,-1.50,9.50,41.00,53.650913,9.698376,4.60,0.20,12,3.880,0,-99,-28,5,3
248144,-0.00,-0.00,1.00,1.28,0.18,0.00,-2.50,12.50,44.00,53.650913,9.698376,4.60,0.20,12,3.950,0,-101,-28,5,3
248244,-0.00,-0.01,1.00,0.67,0.12,0.00,-3.50,11.50,44.00,53.650913,9.698376,4.60,0.20,12,3.820,0,-107,-28,5,3
248344,-0.00,-0.01,1.00,-1.04,0.00,0.00,-1.50,10.50,44.00,53.650913,9.698376,4.60,0.20,12,3.970,0,-98,-28,5,3
248444,0.00,-0.00,1.00,-1.59,-0.06,-0.06,-1.50,10.50,44.00,53.650913,9.698376,4.60,0.20,12,3.940,0,-98,-28,5,3
248548,-0.00,0.00,1.00,-0.55,0.06,0.06,-1.50,11.50,44.00,53.650913,9.698376,4.60,0.20,12,3.960,0,-97,-27,5,3
248648,-0.00,0.00,1.00,1.04,0.00,0.06,-2.50,11.50,46.00,53.650913,9.698376,4.60,0.20,12,3.950,0,-102,-28,5,3
248748,-0.00,-0.00,1.00,1.34,0.06,0.06,-2.50,12.50,45.00,53.650913,9.698376,4.60,0.20,12,3.800,0,-101,-28,5,3
248850,-0.00,-0.01,1.00,0.67,0.00,-0.06,-1.50,10.50,39.00,53.650913,9.698376,4.60,0.20,12,3.970,0,-98,-28,5,3
248950,0.00,-0.01,1.00,-0.67,-0.06,0.00,-3.50,11.50,43.00,53.650913,9.698376,4.60,0.20,12,3.970,0,-107,-28,5,3
249050,-0.00,-0.00,1.00,-1.16,-0.06,0.00,-5.50,11.50,42.00,53.650913,9.698376,4.60,0.20,12,3.920,0,-115,-28,5,3
249150,-0.00,0.00,1.00,-0.43,0.00,0.12,-4.50,9.50,41.00,53.650913,9.698376,4.60,0.20,12,3.970,0,-115,-28,5,3
249250,-0.00,-0.00,1.00,0.79,0.06,0.06,-1.50,6.50,41.00,53.650913,9.698376,4.60,0.20,12,3.890,0,-103,-28,5,3
249350,-0.00,-0.00,1.00,0.73,0.12,0.00,-2.50,11.50,41.00,53.650913,9.698376,4.60,0.20,12,3.980,0,-102,-28,5,3
249450,-0.00,-0.01,1.00,-0.06,0.00,0.06,-3.50,10.50,45.00,53.650913,9.698376,4.60,0.20,12,3.970,0,-109,-28,5,3
249550,-0.00,-0.00,1.00,-0.79,0.00,-0.06,-2.50,12.50,47.00,53.650913,9.698376,4.60,0.20,12,3.960,0,-101,-28,5,3
249650,-0.00,-0.00,1.00,-0.24,0.00,0.06,-1.50,12.50,43.00,53.650913,9.698376,4.60,0.20,12,3.940,0,-97,-28,5,3
249750,-0.00,-0.00,1.00,0.37,0.12,0.00,-1.50,7.50,44.00,53.650913,9.698376,4.60,0.20,12,3.970,0,-101,-28,5,3
249850,-0.00,-0.00,1.00,0.37,0.12,0.12,-2.50,10.50,46.00,53.650913,9.698376,4.60,0.20,12,3.870,0,-104,-28,5,3
249991,-0.00,-0.01,1.00,-0.67,0.00,0.06,-4.50,11.50,44.00,53.650913,9.698376,4.60,0.20,12,3.860,0,-112,-28,5,3
250091,-0.00,-0.00,1.00,-0.67,-0.06,0.06,-1.50,12.50,41.00,53.650913,9.698376,4.60,0.20,12,3.950,0,-97,-28,5,3
250191,-0.00,0.00,1.00,0.24,0.06,0.06,-3.50,13.50,41.00,53.650913,9.698376,4.60,0.20,12,3.820,0,-104,-28,5,3
250291,0.00,-0.00,1.00,0.73,0.06,0.06,-4.50,12.50,46.00,53.650913,9.698376,4.60,0.06,12,3.960,0,-109,-28,5,3
250391,-0.00,-0.01,1.00,0.24,0.12,-0.06,-4.50,8.50,39.00,53.650913,9.698376,4.60,0.06,12,3.960,0,-119,-28,5,3
250491,-0.00,-0.01,1.00,-0.61,0.00,0.00,-0.50,9.50,41.00,53.650913,9.698376,4.60,0.06,12,3.910,0,-93,-28,5,3
250591,-0.00,-0.00,1.00,-0.67,0.00,0.00,-2.50,11.50,47.00,53.650913,9.698376,4.60,0.43,12,3.950,0,-102,-28,5,3
250691,-0.00,0.00,1.00,-0.24,0.00,0.12,-4.50,11.50,45.00,53.650913,9.698376,4.60,0.43,12,3.880,0,-111,-28,5,3
250791,-0.00,-0.00,1.00,0.43,0.06,0.06,-3.50,11.50,43.00,53.650913,9.698376,4.60,0.11,12,3.910,0,-107,-27,5,3
250891,-0.00,-0.00,1.00,0.73,0.06,0.06,-1.50,8.50,41.00,53.650913,9.698376,4.60,0.11,12,3.850,0,-100,-27,5,3
250991,-0.00,-0.00,1.00,0.37,0.06,0.06,-1.50,10.50,41.00,53.650913,9.698376,4.60,0.11,12,3.940,0,-98,-28,5,3
251116,-0.00,-0.01,1.00,-0.49,0.06,0.06,-3.50,10.50,45.00,53.650913,9.698376,4.60,0.11,12,3.930,0,-109,-27,5,3
251218,-0.00,-0.00,1.00,-1.04,-0.12,0.00,-2.50,11.50,45.00,53.650913,9.698377,4.60,0.35,12,3.920,0,-102,-27,5,3
251318,-0.00,0.00,1.00,-0.37,-0.06,0.00,-0.50,10.50,40.00,53.650913,9.698376,4.60,0.28,12,3.960,0,-93,-27,5,3
251418,-0.00,0.00,1.00,0.67,0.06,0.06,-2.50,13.50,38.00,53.650913,9.698376,4.60,0.20,12,3.790,0,-100,-28,5,3
251518,-0.00,-0.00,1.00,0.67,0.12,0.06,-1.50,9.50,37.00,53.650913,9.698376,4.60,0.26,12,3.890,0,-99,-28,5,3
251618,-0.00,-0.01,1.00,0.06,0.06,0.06,-2.50,10.50,42.00,53.650913,9.698376,4.60,0.19,12,4.060,0,-103,-28,5,3
251718,-0.00,-0.00,1.00,-0.43,0.00,0.06,-1.50,10.50,40.00,53.650913,9.698376,4.60,0.48,12,3.850,0,-98,-27,5,3
251818,-0.00,-0.00,1.00,-0.43,0.00,0.06,-0.50,10.50,44.00,53.650913,9.698376,4.60,0.57,12,3.930,0,-92,-28,5,3
251918,-0.00,-0.00,1.00,0.00,0.06,0.12,-2.50,11.50,42.00,53.650913,9.698376,4.60,0.57,12,3.850,0,-102,-28,5,3
252024,-0.00,-0.00,1.00,0.55,0.06,0.12,-2.50,11.50,42.00,53.650913,9.698377,4.60,0.57,12,3.940,0,-102,-28,5,3
252124,-0.00,-0.00,1.00,0.49,0.06,0.06,-2.50,13.50,43.00,53.650913,9.698376,4.60,0.57,12,3.890,0,-100,-27,5,3
252224,-0.00,-0.01,1.00,0.18,0.06,0.00,-5.50,12.50,42.00,53.650913,9.698377,4.60,0.57,12,3.900,0,-114,-28,5,3
252324,-0.00,-0.00,1.00,-0.37,0.06,0.06,-1.50,10.50,45.00,53.650913,9.698377,4.60,0.57,12,3.920,0,-98,-28,5,3
252424,-0.00,-0.00,1.00,-0.49,-0.06,0.00,-1.50,10.50,42.00,53.650913,9.698377,4.60,0.13,12,3.950,0,-98,-28,5,3
252524,-0.00,-0.00,1.00,-0.31,-0.06,0.06,-2.50,9.50,47.00,53.650913,9.698377,4.60,0.13,12,3.890,0,-105,-28,5,3
252624,-0.00,-0.00,1.00,0.18,0.12,0.00,-2.50,10.50,42.00,53.650913,9.698377,4.70,0.13,12,3.840,0,-103,-28,5,3
252724,-0.00,-0.00,1.00,0.37,0.06,0.12,-3.50,10.50,40.00,53.650913,9.698377,4.60,0.13,12,3.900,0,-109,-28,5,3
252824,-0.00,-0.00,1.00,0.12,0.06,0.00,-3.50,11.50,37.00,53.650913,9.698377,4.60,0.50,12,3.770,0,-107,-27,5,3
252924,-0.00,-0.00,1.00,-0.12,0.06,0.00,-2.50,10.50,44.00,53.650913,9.698377,4.60,0.26,12,3.890,0,-103,-28,5,3
253024,-0.00,-0.00,1.00,-0.24,0.00,0.00,-5.50,12.50,37.00,53.650913,9.698377,4.70,0.48,12,3.830,0,-114,-28,5,3
253124,-0.00,-0.00,1.00,0.00,0.06,0.06,-7.50,9.50,43.00,53.650913,9.698377,4.70,0.48,12,3.900,0,-129,-28,5,3
253224,-0.00,-0.00,1.00,0.12,0.00,0.06,-2.50,11.50,43.00,53.650913,9.698377,4.70,0.48,12,3.900,0,-102,-28,5,3
253324,-0.00,-0.00,1.00,0.06,0.06,0.06,-4.50,11.50,43.00,53.650913,9.698377,4.70,0.33,12,3.910,0,-111,-28,5,3
253424,-0.00,-0.00,1.00,0.24,0.00,0.12,-0.50,10.50,45.00,53.650913,9.698377,4.70,0.19,12,3.830,0,-93,-28,5,3
253524,-0.00,-0.00,1.00,0.06,0.06,0.00,-1.50,11.50,39.00,53.650913,9.698377,4.70,0.28,12,3.960,0,-97,-28,5,3
253624,-0.00,-0.00,1.00,-0.06,0.06,0.06,-5.50,10.50,48.00,53.650913,9.698377,4.70,0.30,12,3.800,0,-118,-28,5,3
253724,-0.00,-0.00,1.00,0.06,0.06,0.00,-5.50,13.50,46.00,53.650913,9.698377,4.70,0.35,12,3.820,0,-112,-28,5,3
253825,-0.00,-0.00,1.00,0.31,0.06,0.12,-3.50,7.50,42.00,53.650913,9.698377,4.70,0.20,12,3.960,0,-116,-28,5,3
253927,-0.00,-0.00,1.00,-0.12,0.06,0.00,-2.50,13.50,43.00,53.650913,9.698377,4.70,0.20,12,3.900,0,-100,-28,5,3
254031,-0.00,-0.00,1.00,-0.43,0.06,0.00,-3.50,11.50,41.00,53.650913,9.698377,4.60,0.20,12,3.940,0,-107,-28,5,3
254131,-0.00,-0.00,1.00,-0.12,0.06,0.06,-2.50,10.50,41.00,53.650913,9.698377,4.60,0.20,12,3.930,0,-103,-28,5,3
254231,-0.00,-0.00,1.00,0.37,0.06,0.00,-3.50,11.50,45.00,53.650913,9.698377,4.70,0.20,12,3.970,0,-107,-28,5,3
254331,-0.00,-0.00,1.00,0.43,0.00,0.06,-4.50,11.50,43.00,53.650913,9.698377,4.70,0.20,12,3.970,0,-111,-28,5,3
254438,-0.00,-0.00,1.00,0.06,0.00,0.06,-3.50,13.50,44.00,53.650913,9.698377,4.70,0.20,12,3.830,0,-105,-28,5,3
254538,-0.00,-0.01,1.00,-0.49,0.06,-0.06,-1.50,12.50,43.00,53.650913,9.698377,4.70,0.20,12,3.940,0,-97,-28,5,3
254638,-0.00,-0.00,1.00,-0.43,0.06,0.06,-1.50,11.50,44.00,53.650913,9.698377,4.70,0.20,12,3.950,0,-97,-28,5,3
254738,-0.00,-0.00,1.00,0.18,0.06,0.00,-2.50,11.50,41.00,53.650913,9.698377,4.70,0.20,12,3.940,0,-102,-28,5,3
254838,-0.00,-0.00,1.00,0.55,0.06,0.06,-1.50,11.50,46.00,53.650913,9.698377,4.60,0.06,12,3.960,0,-97,-28,5,3
254938,-0.00,-0.01,1.00,0.31,0.12,0.06,-0.50,10.50,44.00,53.650913,9.698377,4.60,0.06,12,3.920,0,-93,-28,5,3
255038,-0.00,-0.00,1.00,-0.31,0.00,-0.06,-2.50,9.50,39.00,53.650913,9.698377,4.60,0.06,12,3.940,0,-105,-28,5,3
255138,-0.00,-0.00,1.00,-0.43,0.06,-0.06,-4.50,10.50,37.00,53.650913,9.698377,4.60,0.06,12,3.760,0,-113,-28,5,3
255238,-0.00,-0.00,1.00,0.00,0.06,0.06,-2.50,10.50,45.00,53.650913,9.698377,4.60,0.06,12,3.880,0,-103,-28,5,3
255340,-0.00,-0.00,1.00,0.55,0.00,0.00,-2.50,11.50,43.00,53.650913,9.698377,4.60,0.06,12,3.750,0,-102,-28,5,3
255440,-0.00,-0.00,1.00,0.37,0.12,-0.06,-1.50,11.50,47.00,53.650913,9.698377,4.60,0.06,12,3.870,0,-97,-28,5,3
255540,-0.00,-0.01,1.00,-0.31,0.00,0.00,-2.50,10.50,45.00,53.650913,9.698377,4.60,0.06,12,3.740,0,-103,-28,5,3
255640,-0.00,-0.00,1.00,-0.61,-0.06,0.00,-2.50,11.50,42.00,53.650913,9.698377,4.60,0.06,12,3.840,0,-102,-28,5,3
255740,-0.00,-0.00,1.00,-0.37,0.06,0.00,-3.50,8.50,42.00,53.650913,9.698377,4.60,0.06,12,3.960,0,-112,-28,5,3
255864,-0.00,-0.00,1.00,0.37,0.12,0.12,-2.50,11.50,44.00,53.650913,9.698377,4.60,0.02,12,3.890,0,-102,-28,5,3
255964,-0.00,-0.00,1.00,0.31,0.00,0.06,-1.50,11.50,46.00,53.650913,9.698377,4.60,0.28,12,3.890,0,-97,-28,5,3
256066,-0.00,-0.00,1.00,-0.24,0.00,-0.06,-1.50,10.50,40.00,53.650913,9.698377,4.60,0.28,12,3.880,0,-98,-28,5,3
256166,-0.00,-0.00,1.00,-0.49,0.06,0.00,-2.50,8.50,45.00,53.650913,9.698377,4.60,0.28,12,3.940,0,-107,-28,5,3
256266,-0.00,0.00,1.00,-0.24,0.00,0.00,-2.50,10.50,42.00,53.650913,9.698377,4.60,0.28,12,3.920,0,-103,-28,5,3
256366,-0.00,-0.00,1.00,0.24,0.06,0.06,-5.50,12.50,44.00,53.650913,9.698377,4.60,0.28,12,3.910,0,-114,-28,5,3
256467,-0.00,-0.00,1.00,0.43,0.06,-0.06,-5.50,11.50,45.00,53.650913,9.698377,4.60,0.28,12,3.880,0,-116,-28,5,3
256567,-0.00,-0.00,1.00,0.18,0.00,0.00,-2.50,11.50,42.00,53.650913,9.698377,4.60,0.28,12,3.910,0,-102,-28,5,3
256701,-0.00,-0.00,1.00,-0.24,0.00,0.06,-1.50,10.50,40.00,53.650913,9.698377,4.60,0.28,12,3.930,0,-98,-28,5,3
256801,-0.00,-0.00,1.00,-0.24,0.06,0.00,-1.50,10.50,40.00,53.650913,9.698376,4.60,0.11,12,3.940,0,-98,-28,5,3
256901,-0.00,-0.00,1.00,0.06,0.00,0.06,-5.50,12.50,46.00,53.650913,9.698376,4.60,0.11,12,3.810,0,-114,-28,5,3
257001,-0.00,-0.00,1.00,0.12,0.06,0.00,-2.50,12.50,42.00,53.650913,9.698376,4.60,0.11,12,3.830,0,-101,-28,5,3
257101,-0.00,-0.00,1.00,0.37,0.06,0.12,-2.50,11.50,41.00,53.650913,9.698376,4.60,0.11,12,3.910,0,-102,-28,5,3
257201,-0.00,-0.00,1.00,0.18,0.06,0.00,-5.50,11.50,43.00,53.650913,9.698376,4.60,0.11,12,3.950,0,-115,-28,5,3
257301,-0.00,-0.00,1.00,0.12,0.06,0.06,-5.50,11.50,43.00,53.650913,9.698376,4.70,0.19,12,3.880,0,-116,-27,5,3
257401,-0.00,-0.00,1.00,0.00,0.00,-0.06,-4.50,9.50,42.00,53.650913,9.698376,4.70,0.11,12,3.980,0,-116,-27,5,3
257501,-0.00,-0.00,1.00,0.00,0.06,0.12,-4.50,11.50,45.00,53.650913,9.698376,4.70,0.26,12,3.850,0,-111,-28,5,3
257601,-0.00,-0.00,1.00,0.12,0.06,0.00,-2.50,12.50,41.00,53.650913,9.698376,4.70,0.20,12,3.940,0,-102,-28,5,3
257701,-0.00,-0.00,1.00,0.18,0.06,0.06,-5.50,12.50,41.00,53.650913,9.698376,4.73,0.20,12,3.960,0,-114,-28,5,3
257801,-0.00,-0.00,1.00,0.18,0.06,0.06,-1.50,14.50,41.00,53.650913,9.698376,4.73,0.26,12,3.860,0,-96,-28,5,3
257901,-0.00,-0.00,1.00,0.49,0.06,0.12,-3.50,15.50,42.00,53.650913,9.698376,4.73,0.26,12,3.830,0,-102,-28,5,3
258001,-0.00,-0.01,1.00,0.24,0.06,-0.06,-2.50,11.50,45.00,53.650913,9.698376,4.73,0.26,12,3.950,0,-103,-27,5,3
258101,-0.00,-0.00,1.00,-0.37,-0.06,0.06,-1.50,11.50,44.00,53.650913,9.698376,4.73,0.26,12,3.940,0,-97,-27,5,3
258201,-0.00,-0.01,1.00,-0.61,0.06,0.00,-1.50,10.50,43.00,53.650913,9.698376,4.73,0.06,12,3.960,0,-98,-28,5,3
258301,-0.00,-0.00,1.00,-0.06,0.00,0.06,-2.50,11.50,44.00,53.650913,9.698376,4.73,0.07,12,3.920,0,-102,-28,5,3
258401,-0.00,-0.00,1.00,0.24,0.06,0.06,-3.50,12.50,43.00,53.650913,9.698376,4.73,0.06,12,3.820,0,-106,-28,5,3
258501,-0.00,-0.00,1.00,0.31,0.00,0.00,-4.50,12.50,45.00,53.650913,9.698376,4.73,0.07,12,3.720,0,-110,-28,5,3
258601,-0.00,-0.00,1.00,-0.06,0.06,0.00,-5.50,9.50,43.00,53.650913,9.698376,4.70,0.04,12,3.910,0,-120,-28,5,3
258701,-0.00,-0.00,1.00,-0.49,0.00,-0.06,-2.50,11.50,43.00,53.650913,9.698376,4.70,0.04,12,3.910,0,-102,-28,5,3
258801,-0.00,-0.00,1.00,-0.43,0.00,0.00,-3.50,10.50,42.00,53.650913,9.698376,4.70,0.13,12,3.890,0,-108,-28,5,3
258901,-0.00,-0.00,1.00,0.24,0.00,0.12,-3.50,12.50,43.00,53.650913,9.698376,4.70,0.13,12,3.950,0,-106,-28,5,3
259001,-0.00,-0.00,1.00,0.61,0.06,0.06,-3.50,11.50,42.00,53.650913,9.698376,4.70,0.19,12,3.960,0,-107,-28,5,3
259101,-0.00,-0.01,1.00,0.37,0.18,0.06,-2.50,14.50,46.00,53.650913,9.698376,4.70,0.17,12,3.960,0,-100,-28,5,3
259201,-0.00,-0.00,1.00,-0.49,0.06,0.06,-1.50,11.50,39.00,53.650913,9.698376,4.70,0.09,12,3.950,0,-97,-28,5,3
259301,-0.00,-0.00,1.00,-0.61,0.00,0.00,-2.50,11.50,41.00,53.650913,9.698376,4.70,0.02,12,3.790,0,-102,-28,5,3
259401,-0.00,-0.00,1.00,-0.06,0.06,0.00,-1.50,12.50,42.00,53.650913,9.698376,4.70,0.30,12,3.970,0,-97,-28,5,3
259501,-0.00,-0.00,1.00,0.43,0.12,0.06,-3.50,11.50,43.00,53.650913,9.698376,4.70,0.19,12,3.820,0,-107,-28,5,3
259601,-0.00,-0.00,1.00,0.49,0.18,0.06,-0.50,12.50,43.00,53.650913,9.698376,4.60,0.48,12,3.940,0,-92,-28,5,3
259701,-0.00,-0.01,1.00,0.06,0.06,0.00,-1.50,12.50,44.00,53.650913,9.698376,4.60,0.44,12,3.930,0,-97,-28,5,3
259801,-0.00,-0.00,1.00,-0.49,0.06,0.00,-4.50,11.50,40.00,53.650913,9.698376,4.60,0.11,12,3.880,0,-111,-28,5,3
259901,-0.00,-0.00,1.00,-0.43,-0.12,0.00,-2.50,11.50,45.00,53.650913,9.698376,4.60,0.11,12,3.930,0,-103,-27,5,3
260014,-0.00,-0.00,1.00,0.12,0.06,0.00,-1.50,11.50,42.00,53.650913,9.698376,4.60,0.11,12,3.800,0,-97,-28,5,3
260114,-0.00,-0.00,1.00,0.37,0.00,0.06,-4.50,13.50,42.00,53.650913,9.698376,4.60,0.35,12,4.030,0,-108,-28,5,3
260214,-0.00,-0.00,1.00,0.24,0.00,0.06,-2.50,12.50,43.00,53.650913,9.698375,4.60,0.52,12,3.820,0,-101,-28,5,3
260314,-0.00,-0.00,1.00,-0.12,0.06,0.00,-2.50,14.50,45.00,53.650913,9.698375,4.60,0.24,12,3.960,0,-100,-28,5,3
260414,-0.00,-0.00,1.00,-0.31,0.00,0.00,-1.50,13.50,45.00,53.650913,9.698376,4.60,0.43,12,3.900,0,-96,-28,5,3
260514,-0.00,-0.00,1.00,-0.18,0.00,0.00,-2.50,10.50,46.00,53.650913,9.698376,4.60,0.28,12,3.830,0,-103,-28,5,3
260614,-0.00,-0.00,1.00,0.37,0.06,0.00,-2.50,12.50,42.00,53.650913,9.698376,4.60,0.07,12,3.930,0,-101,-28,5,3
260714,-0.00,-0.00,1.00,0.43,0.06,0.06,-0.50,9.50,40.00,53.650913,9.698375,4.60,0.19,12,3.960,0,-93,-27,5,3
260815,-0.00,-0.01,1.00,0.06,0.06,0.06,-5.50,8.50,43.00,53.650913,9.698376,4.60,0.52,12,3.920,0,-124,-28,5,3
260915,-0.00,-0.00,1.00,-0.37,0.06,0.00,-4.50,9.50,42.00,53.650913,9.698376,4.60,0.52,12,3.920,0,-115,-28,5,3
261015,-0.00,-0.00,1.00,-0.37,0.00,0.06,-1.50,12.50,40.00,53.650913,9.698376,4.60,0.31,12,3.950,0,-97,-27,5,3
261115,-0.00,-0.00,1.00,0.06,0.06,0.06,-3.50,11.50,40.00,53.650913,9.698376,4.60,0.31,12,3.940,0,-107,-27,5,3
261215,-0.00,-0.00,1.00,0.37,0.06,0.00,-4.50,13.50,40.00,53.650913,9.698376,4.60,0.11,12,3.990,0,-108,-27,5,3
261315,-0.00,-0.00,1.00,0.37,0.12,0.06,-2.50,12.50,41.00,53.650913,9.698376,4.60,0.24,12,3.960,0,-101,-27,5,3
261415,-0.00,-0.00,1.00,-0.06,0.06,0.06,-1.50,10.50,41.00,53.650913,9.698376,4.60,0.22,12,3.940,0,-98,-28,5,3
261515,-0.00,-0.00,1.00,-0.37,0.06,0.00,-2.50,7.50,39.00,53.650913,9.698376,4.60,0.13,12,3.930,0,-109,-27,5,3
261615,-0.00,-0.00,1.00,-0.37,0.00,-0.06,-3.50,12.50,39.00,53.650913,9.698376,4.60,0.09,12,3.890,0,-105,-28,5,3
261715,-0.00,-0.00,1.00,0.18,0.12,-0.06,-2.50,10.50,47.00,53.650913,9.698376,4.60,0.15,12,3.920,0,-103,-28,5,3
261815,-0.00,-0.00,1.00,0.61,0.06,0.00,-1.50,11.50,39.00,53.650913,9.698376,4.60,0.06,12,3.960,0,-97,-28,5,3
261915,-0.00,-0.01,1.00,0.43,0.06,0.06,-1.50,11.50,43.00,53.650913,9.698376,4.60,0.06,12,3.930,0,-97,-27,5,3
262015,-0.00,-0.00,1.00,0.06,0.06,0.06,-0.50,10.50,45.00,53.650913,9.698376,4.60,0.06,12,3.990,0,-93,-28,5,3
262116,-0.00,-0.01,1.00,-0.37,0.00,-0.06,-4.50,12.50,45.00,53.650913,9.698376,4.60,0.06,12,3.940,0,-110,-28,5,3
262216,-0.00,-0.00,1.00,-0.31,0.06,0.00,-1.50,11.50,45.00,53.650913,9.698376,4.60,0.15,12,3.830,0,-97,-28,5,3
262316,-0.00,-0.00,1.00,-0.06,0.12,0.00,-2.50,9.50,45.00,53.650913,9.698376,4.60,0.13,12,3.950,0,-105,-28,5,3
262416,-0.00,-0.00,1.00,0.24,0.06,0.00,-0.50,9.50,46.00,53.650913,9.698376,4.60,0.00,12,3.910,0,-93,-28,5,3
262516,-0.00,-0.01,1.00,0.12,0.06,0.06,-2.50,10.50,43.00,53.650913,9.698376,4.60,0.07,12,3.960,0,-104,-27,5,3
262616,-0.00,-0.01,1.00,-0.18,0.06,0.06,-2.50,10.50,45.00,53.650913,9.698376,4.60,0.15,12,3.920,0,-103,-27,5,3
262716,-0.00,-0.00,1.00,-0.12,0.00,0.06,-3.50,12.50,41.00,53.650913,9.698376,4.60,0.04,12,3.870,0,-105,-28,5,3
262816,-0.00,-0.00,1.00,0.12,0.00,0.00,-1.50,11.50,43.00,53.650913,9.698375,4.60,0.24,12,3.850,0,-97,-27,5,3
262916,-0.00,-0.00,1.00,0.06,0.06,0.00,-1.50,12.50,45.00,53.650913,9.698375,4.60,0.24,12,3.900,0,-97,-28,5,3
263016,-0.00,-0.00,1.00,-0.12,0.06,0.00,-1.50,12.50,42.00,53.650913,9.698376,4.60,0.28,12,3.820,0,-97,-28,5,3
263116,-0.00,-0.01,1.00,-0.12,0.00,0.00,-2.50,12.50,42.00,53.650913,9.698376,4.60,0.06,12,3.950,0,-101,-27,5,3
263217,-0.00,-0.00,1.00,-0.06,0.00,0.00,-4.50,10.50,42.00,53.650913,9.698376,4.60,0.46,12,3.940,0,-113,-28,5,3
263350,-0.00,-0.00,1.00,0.12,0.06,0.06,-2.50,10.50,42.00,53.650913,9.698376,4.60,0.46,12,3.940,0,-103,-28,5,3
263450,-0.00,-0.00,1.00,0.18,0.00,0.06,-3.50,10.50,44.00,53.650913,9.698376,4.60,0.46,12,3.920,0,-108,-28,5,3
263550,-0.00,-0.00,1.00,0.24,0.06,0.06,-3.50,12.50,44.00,53.650913,9.698376,4.60,0.46,12,3.950,0,-106,-28,5,3
263650,-0.00,-0.01,1.00,0.00,0.00,0.06,-1.50,12.50,43.00,53.650913,9.698376,4.60,0.46,12,3.940,0,-97,-27,5,3
263750,-0.00,-0.00,1.00,0.06,-0.12,-0.06,-3.50,12.50,44.00,53.650913,9.698376,4.60,0.46,12,3.970,0,-105,-28,5,3
263850,-0.01,-0.02,1.01,-0.24,0.55,0.67,-1.50,9.50,46.00,53.650913,9.698376,4.60,0.46,12,3.941,0,-103,-28,5,3
263950,0.00,0.03,0.99,-0.37,0.24,7.57,-2.50,10.50,45.00,53.650913,9.698376,4.60,0.46,12,3.94-1,0,-101,-28,5,3
264050,0.01,-0.01,1.00,-3.91,1.59,-2.26,-2.50,10.50,44.00,53.650913,9.698376,4.60,0.46,12,3.780,0,-101,-28,5,3
264159,0.00,0.03,1.01,2.01,0.55,1.83,-1.50,13.50,43.00,53.650913,9.698376,4.60,0.46,12,3.84-1,0,-95,-27,5,3
264259,0.03,-0.02,1.01,4.76,0.37,6.84,-2.50,10.50,45.00,53.650913,9.698376,4.60,0.46,12,3.811,1,-96,-28,5,3
264360,-0.02,0.03,1.02,0.49,0.37,0.00,-0.50,10.50,42.00,53.650913,9.698376,4.60,0.46,12,3.95-1,-1,-97,-28,5,3
264460,0.01,-0.00,1.00,-0.49,-0.12,0.12,-2.50,12.50,42.00,53.650913,9.698376,4.60,0.46,12,3.910,0,-98,-27,5,3
264560,0.01,0.01,0.98,-7.02,2.69,-10.56,-3.50,9.50,42.00,53.650913,9.698376,4.60,0.46,12,3.980,0,-106,-28,5,3
264660,0.01,0.01,1.01,0.31,0.12,0.12,-2.50,10.50,47.00,53.650913,9.698376,4.60,0.46,12,3.820,0,-100,-28,5,3
264760,0.01,0.02,1.00,0.00,0.24,0.06,-3.50,10.50,47.00,53.650913,9.698376,4.60,0.46,12,3.96-1,0,-105,-28,5,3
264860,0.01,0.01,1.00,-0.55,0.24,0.06,-1.50,14.50,47.00,53.650913,9.698376,4.60,0.46,12,3.850,0,-94,-28,5,3
264960,0.01,0.02,1.00,0.37,0.12,0.43,-2.50,12.50,43.00,53.650913,9.698376,4.60,0.46,12,3.92-1,0,-98,-27,5,3
265060,-0.01,0.01,1.07,2.26,0.67,0.92,-1.50,9.50,45.00,53.650913,9.698376,4.60,0.46,12,3.880,0,-101,-27,5,3
265160,-0.01,0.02,1.03,4.15,-0.49,2.14,-1.50,12.50,45.00,53.650913,9.698376,4.60,0.46,12,3.96-1,0,-98,-28,5,3
265260,-0.00,0.01,1.01,0.18,-0.12,-1.65,-0.50,11.50,43.00,53.650913,9.698376,4.60,0.46,12,3.980,0,-93,-27,5,3
265361,0.01,0.03,0.99,-0.79,0.43,-3.48,-1.50,11.50,44.00,53.650913,9.698376,4.60,0.46,12,3.96-1,0,-95,-28,5,3
265461,0.01,0.01,1.02,0.00,-0.06,0.92,-4.50,10.50,45.00,53.650913,9.698376,4.60,0.46,12,3.980,0,-109,-27,5,3
265561,0.05,0.00,0.94,15.14,-2.20,7.26,-2.50,9.50,46.00,53.650913,9.698376,4.60,0.46,12,3.900,3,-90,-28,5,3
265661,0.04,-0.00,1.05,-20.87,6.96,8.06,-2.50,9.50,47.00,53.650913,9.698376,4.60,0.46,12,3.880,1,-96,-28,5,3
265761,-0.18,0.32,0.84,-15.75,1.04,17.09,-1.50,10.50,47.00,53.650913,9.698376,4.60,0.46,12,3.90-20,-11,-112,-27,5,3
265861,0.13,0.27,0.33,20.63,-0.55,-26.12,-1.50,10.50,47.00,53.650913,9.698376,4.60,0.46,12,3.94-40,16,-72,-28,5,3
265971,-0.01,-0.02,1.16,-6.65,-0.31,0.55,-2.50,11.50,45.00,53.650913,9.698375,4.60,0.46,12,3.971,0,-104,-28,5,3
266071,0.01,-0.01,1.05,1.53,-0.79,-0.98,-2.50,14.50,44.00,53.650913,9.698375,4.60,0.46,12,4.010,0,-98,-28,5,3
266171,0.01,0.01,1.00,-0.43,-0.67,-0.12,-4.50,11.50,41.00,53.650913,9.698375,4.60,0.46,12,3.990,0,-109,-27,5,3
266271,0.00,-0.01,1.00,-0.12,-0.85,-0.79,-3.50,7.50,41.00,53.650913,9.698375,4.60,0.46,12,3.800,0,-116,-28,5,3
266371,0.00,0.02,0.98,-0.85,-0.73,-1.04,-2.50,11.50,44.00,53.650913,9.698375,4.60,0.46,12,3.95-1,0,-100,-28,5,3
266471,0.00,-0.00,1.00,0.43,-0.43,-0.49,-3.50,11.50,42.00,53.650913,9.698375,4.60,0.46,12,3.960,0,-106,-28,5,3
266571,-0.00,0.02,0.98,0.43,-0.31,-0.12,-2.50,9.50,42.00,53.650913,9.698375,4.60,0.46,12,3.950,0,-104,-28,5,3
266836,0.01,-0.00,1.00,-0.18,0.12,0.12,-2.50,9.50,45.00,53.650913,9.698375,4.60,0.46,12,3.940,0,-103,-27,5,3
266936,0.00,0.01,1.00,-0.31,0.18,0.31,-2.50,10.50,45.00,53.650913,9.698376,4.60,0.19,12,3.960,0,-102,-28,5,3
267036,0.00,-0.00,1.00,0.18,0.18,0.00,-3.50,15.50,42.00,53.650913,9.698376,4.60,0.19,12,3.950,0,-102,-28,5,3
267136,0.00,0.01,1.00,0.12,0.12,0.12,-1.50,10.50,46.00,53.650913,9.698376,4.60,0.19,12,3.970,0,-97,-28,5,3
267236,0.00,-0.01,1.00,0.06,0.12,0.00,-4.50,11.50,45.00,53.650913,9.698376,4.60,0.19,12,3.960,0,-111,-28,5,3
267336,0.00,0.01,1.00,-0.18,0.12,0.06,-2.50,12.50,45.00,53.650913,9.698376,4.60,0.19,12,3.940,0,-100,-28,5,3
267436,0.00,-0.00,1.00,-0.18,0.00,0.00,-0.50,10.50,45.00,53.650913,9.698376,4.60,0.19,12,3.960,0,-92,-28,5,3
267536,0.00,0.01,1.00,0.06,0.12,0.00,-3.50,10.50,43.00,53.650913,9.698376,4.60,0.19,12,3.920,0,-107,-27,5,3
267636,0.00,0.00,1.00,0.12,0.06,0.06,-1.50,11.50,44.00,53.650913,9.698376,4.60,0.19,12,3.950,0,-96,-28,5,3
267736,0.00,0.00,1.00,0.12,0.12,-0.06,-4.50,12.50,47.00,53.650913,9.698376,4.60,0.19,12,4.000,0,-108,-28,5,3
267836,0.00,0.00,1.00,-0.24,0.00,0.06,-0.50,11.50,43.00,53.650913,9.698376,4.60,0.26,12,3.960,0,-91,-28,5,3
267936,0.00,0.00,1.00,0.00,0.00,0.06,-0.50,13.50,45.00,53.650913,9.698375,4.60,0.72,12,3.990,0,-91,-28,5,3
268039,0.00,0.00,1.00,0.12,0.06,0.06,-1.50,13.50,45.00,53.650913,9.698376,4.60,0.72,12,4.010,0,-96,-28,5,3
268139,0.00,0.00,1.00,0.43,0.12,0.00,-3.50,11.50,47.00,53.650913,9.698376,4.60,0.72,12,3.960,0,-106,-28,5,3
268246,0.00,0.00,1.00,0.06,0.00,0.00,-3.50,10.50,47.00,53.650913,9.698376,4.60,0.72,12,3.930,0,-107,-28,5,3
268349,0.00,0.00,1.00,-0.24,0.00,0.06,-1.50,6.50,44.00,53.650913,9.698376,4.60,0.72,12,3.990,0,-102,-28,5,3
268449,0.00,0.00,1.00,-0.49,0.00,-0.12,-3.50,11.50,42.00,53.650913,9.698376,4.60,0.72,12,3.970,0,-106,-28,5,3
268549,0.00,0.00,1.00,-0.18,0.00,-0.06,-3.50,11.50,42.00,53.650913,9.698376,4.60,0.72,12,3.990,0,-106,-28,5,3
268649,0.00,0.01,1.00,0.31,0.06,0.06,0.50,10.50,45.00,53.650913,9.698376,4.60,0.72,12,3.990,0,-86,-28,5,3
268749,0.00,0.00,1.00,-0.24,0.06,0.12,-3.50,10.50,43.00,53.650913,9.698376,4.60,0.72,12,4.000,0,-108,-27,5,3
268849,0.00,0.00,1.00,-0.79,0.06,0.00,-3.50,10.50,43.00,53.650913,9.698376,4.60,0.72,12,3.910,0,-107,-28,5,3
268950,0.00,-0.00,1.00,-2.20,0.00,-0.18,-0.50,9.50,43.00,53.650913,9.698376,4.60,0.72,12,3.960,0,-92,-28,5,3
269050,-0.00,0.01,1.01,-3.11,-0.24,-0.06,-2.50,13.50,45.00,53.650913,9.698376,4.60,0.72,12,3.930,0,-100,-27,5,3
269150,0.01,0.03,1.00,-3.42,0.00,0.00,-2.50,13.50,45.00,53.650913,9.698376,4.60,0.72,12,3.97-1,0,-98,-28,5,3
269250,0.01,0.04,1.01,-1.10,0.31,-0.18,-1.50,9.50,42.00,53.650913,9.698376,4.60,0.72,12,3.81-2,0,-96,-28,5,3
269351,0.01,0.01,1.00,1.89,0.24,-0.31,-1.50,9.50,42.00,53.650913,9.698376,4.60,0.72,12,3.920,0,-97,-28,5,3
269453,0.00,0.01,1.01,1.46,0.12,0.18,-2.50,11.50,43.00,53.650913,9.698376,4.60,0.72,12,3.950,0,-101,-28,5,3
269553,0.00,0.03,1.01,0.18,-0.06,0.31,-2.50,13.50,43.00,53.650913,9.698376,4.60,0.72,12,3.90-1,0,-99,-28,5,3
269653,0.00,0.02,1.00,-0.73,-0.06,-0.24,0.50,10.50,47.00,53.650913,9.698376,4.60,0.72,12,3.82-1,0,-86,-28,5,3
269753,0.00,0.01,1.00,-0.06,0.06,0.00,-2.50,10.50,43.00,53.650913,9.698376,4.60,0.72,12,3.950,0,-102,-28,5,3
269853,0.00,0.02,1.00,0.49,0.06,0.18,-1.50,10.50,45.00,53.650913,9.698376,4.60,0.72,12,3.93-1,0,-96,-27,5,3
269953,-0.00,0.02,1.00,0.92,0.06,0.00,-1.50,11.50,41.00,53.650913,9.698376,4.60,0.72,12,3.92-1,0,-97,-28,5,3
270057,0.00,0.01,0.99,-0.92,0.00,-0.24,-0.50,11.50,45.00,53.650913,9.698376,4.60,0.72,12,3.920,0,-91,-28,5,3
270163,-0.00,0.02,1.01,-0.61,-0.06,0.18,-4.50,10.50,37.00,53.650913,9.698376,4.60,0.72,12,3.89-1,0,-112,-27,5,3
270264,0.00,0.03,0.99,0.98,0.12,0.06,-3.50,10.50,43.00,53.650913,9.698376,4.60,0.72,12,3.93-1,0,-106,-28,5,3
270364,-0.00,0.00,1.01,1.40,0.12,0.00,-1.50,8.50,48.00,53.650913,9.698376,4.60,0.72,12,3.790,0,-100,-27,5,3
270464,0.00,0.02,0.99,0.18,0.12,0.18,-1.50,11.50,45.00,53.650913,9.698376,4.60,0.72,12,3.950,0,-96,-28,5,3
270564,-0.00,0.02,1.01,-1.22,-0.06,-0.06,-1.50,12.50,45.00,53.650913,9.698376,4.60,0.72,12,3.88-1,0,-96,-28,5,3
270664,0.00,0.01,1.00,-0.98,0.00,-0.18,-1.50,8.50,41.00,53.650913,9.698376,4.60,0.72,12,3.880,0,-98,-28,5,3
270764,0.00,0.02,1.00,0.24,0.06,0.06,-1.50,11.50,42.00,53.650913,9.698376,4.60,0.72,12,3.95-1,0,-96,-28,5,3
270864,0.00,0.01,0.99,0.79,0.18,0.18,-1.50,10.50,43.00,53.650913,9.698376,4.60,0.72,12,3.930,0,-97,-28,5,3
270964,0.00,0.02,1.00,-0.18,0.06,0.00,-2.50,9.50,43.00,53.650913,9.698376,4.60,0.72,12,3.960,0,-103,-28,5,3
271064,0.00,0.02,1.00,-1.04,0.00,-0.12,-2.50,12.50,47.00,53.650913,9.698376,4.60,0.72,12,3.84-1,0,-100,-28,5,3
271164,0.00,0.02,1.00,-0.61,0.00,-0.18,-4.50,9.50,40.00,53.650913,9.698376,4.60,0.72,12,3.94-1,0,-113,-28,5,3
271264,0.00,0.02,1.00,0.24,0.06,0.00,-3.50,11.50,40.00,53.650913,9.698376,4.60,0.72,12,3.930,0,-105,-28,5,3
271364,-0.00,0.02,1.00,0.43,0.06,0.00,-2.50,11.50,44.00,53.650913,9.698376,4.60,0.72,12,3.91-1,0,-101,-28,5,3
271464,0.00,0.02,1.00,0.12,0.06,0.06,-2.50,12.50,50.00,53.650913,9.698376,4.60,0.72,12,3.820,0,-100,-28,5,3
271564,0.00,0.02,1.00,-0.06,-0.06,-0.06,-1.50,10.50,42.00,53.650913,9.698376,4.60,0.72,12,3.89-1,0,-97,-27,5,3
271664,0.00,0.01,1.00,0.00,0.06,-0.06,-0.50,10.50,45.00,53.650913,9.698376,4.60,0.72,12,3.920,0,-91,-27,5,3
271764,0.00,0.02,1.00,0.06,0.12,0.06,-1.50,12.50,42.00,53.650913,9.698376,4.60,0.72,12,3.94-1,0,-96,-28,5,3
271864,0.00,0.02,1.00,-0.31,0.00,0.00,-1.50,11.50,43.00,53.650913,9.698376,4.60,0.72,12,3.860,0,-96,-28,5,3
271964,0.00,0.02,1.00,-0.37,0.00,0.00,-3.50,11.50,46.00,53.650913,9.698376,4.60,0.72,12,3.91-1,0,-105,-28,5,3
272064,0.00,0.02,1.00,-0.06,0.06,0.00,-1.50,11.50,44.00,53.650913,9.698376,4.60,0.72,12,3.94-1,0,-96,-28,5,3
272165,0.00,0.02,1.00,0.12,0.12,0.12,-2.50,11.50,46.00,53.650913,9.698376,4.60,0.72,12,3.95-1,0,-101,-28,5,3
272274,0.00,0.02,1.00,0.06,0.06,-0.06,-3.50,10.50,45.00,53.650913,9.698376,4.60,0.72,12,4.000,0,-107,-28,5,3
272374,0.00,0.02,1.00,-0.43,0.06,-0.06,-1.50,10.50,46.00,53.650913,9.698376,4.60,0.72,12,3.98-1,0,-97,-28,5,3
272474,0.00,0.02,1.00,-0.61,0.06,-0.06,-2.50,11.50,43.00,53.650913,9.698376,4.60,0.72,12,3.900,0,-101,-28,5,3
272574,0.00,0.02,1.00,-0.31,0.06,0.06,0.50,12.50,44.00,53.650913,9.698376,4.60,0.72,12,4.00-1,0,-87,-28,5,3
272674,0.00,0.01,1.00,0.12,0.12,0.06,-2.50,10.50,37.00,53.650913,9.698376,4.60,0.72,12,3.950,0,-102,-28,5,3
272774,0.00,0.03,1.00,0.12,0.06,0.00,-2.50,10.50,43.00,53.650913,9.698376,4.60,0.72,12,3.94-1,0,-101,-28,5,3
272874,0.00,0.01,1.00,-0.18,0.12,0.06,-3.50,9.50,45.00,53.650913,9.698376,4.60,0.72,12,3.990,0,-108,-28,5,3
272975,0.00,0.02,1.00,0.00,0.00,-0.06,-1.50,10.50,40.00,53.650913,9.698376,4.60,0.72,12,3.95-1,0,-97,-28,5,3
273075,0.00,0.02,1.00,-0.06,0.12,0.06,-0.50,10.50,46.00,53.650913,9.698376,4.60,0.72,12,3.97-1,0,-92,-28,5,3
273175,0.00,0.02,1.00,0.12,-0.06,0.00,-0.50,10.50,46.00,53.650913,9.698376,4.60,0.72,12,3.89-1,0,-92,-28,5,3
273275,0.00,0.02,1.00,-0.12,0.12,0.06,-1.50,12.50,44.00,53.650913,9.698376,4.60,0.72,12,3.95-1,0,-95,-28,5,3
273375,0.00,0.02,1.00,-0.12,0.00,-0.12,-1.50,11.50,44.00,53.650913,9.698376,4.60,0.72,12,3.940,0,-96,-28,5,3
273482,0.00,0.02,1.00,0.06,0.00,0.00,-4.50,11.50,43.00,53.650913,9.698376,4.60,0.72,12,3.93-1,0,-109,-28,5,3
273582,0.00,0.02,1.00,0.49,0.00,0.06,-2.50,11.50,46.00,53.650913,9.698376,4.60,0.72,12,4.00-1,0,-101,-27,5,3
273682,0.00,0.02,1.00,0.43,0.06,0.00,-0.50,11.50,45.00,53.650913,9.698376,4.60,0.72,12,4.01-1,0,-92,-28,5,3
273782,-0.00,0.03,1.00,1.89,0.12,0.06,-1.50,12.50,43.00,53.650913,9.698375,4.60,0.11,12,4.00-1,0,-97,-28,5,3
273882,-0.00,0.01,1.01,1.46,0.06,-0.06,-1.50,11.50,49.00,53.650913,9.698375,4.60,0.11,12,4.010,0,-98,-28,5,3
273982,-0.00,0.01,1.00,-0.49,0.12,-0.06,-2.50,12.50,46.00,53.650913,9.698375,4.60,0.11,12,3.940,0,-102,-28,5,3
274082,-0.00,0.02,1.00,-0.79,0.06,0.06,-3.50,12.50,42.00,53.650913,9.698375,4.60,0.11,12,3.96-1,0,-105,-28,5,3
274182,-0.00,0.00,1.00,0.06,0.18,0.06,-2.50,11.50,46.00,53.650913,9.698375,4.60,0.11,12,3.990,0,-102,-28,5,3
274290,-0.00,0.02,0.99,1.89,0.37,-0.06,-0.50,11.50,45.00,53.650913,9.698375,4.60,0.31,12,3.95-1,0,-92,-28,5,3
274390,0.00,0.02,1.00,2.26,0.06,0.49,-3.50,11.50,41.00,53.650913,9.698375,4.60,0.15,12,4.01-1,0,-105,-28,5,3
274490,-0.00,-0.01,1.01,0.00,0.06,0.12,-3.50,10.50,46.00,53.650913,9.698375,4.70,0.02,12,4.010,0,-110,-27,5,3
274590,0.00,0.03,1.00,-0.37,0.12,0.24,-2.50,10.50,43.00,53.650913,9.698375,4.70,0.35,12,3.98-1,0,-101,-28,5,3
274690,-0.04,0.00,1.01,-0.49,-0.24,-0.79,-1.50,11.50,49.00,53.650913,9.698375,4.70,0.15,12,4.000,-2,-106,-28,5,3
274793,0.01,0.02,0.98,0.98,0.24,-0.37,-1.50,11.50,47.00,53.650913,9.698375,4.70,0.07,12,3.99-1,0,-95,-28,5,3
274893,0.01,0.00,1.04,1.10,0.24,0.55,-1.50,12.50,43.00,53.650913,9.698375,4.70,0.07,12,3.920,0,-94,-28,5,3
274993,0.01,-0.01,1.00,0.18,-0.37,0.37,-4.50,8.50,44.00,53.650913,9.698375,4.70,0.07,12,3.830,0,-116,-27,5,3
275093,-0.00,0.02,1.00,-0.12,-0.18,-0.06,-3.50,12.50,42.00,53.650913,9.698375,4.70,0.07,12,3.97-1,0,-104,-27,5,3
275193,0.01,0.01,0.98,-0.73,-0.24,-0.49,-2.50,11.50,43.00,53.650913,9.698375,4.70,0.07,12,3.950,0,-100,-28,5,3
275293,-0.01,-0.01,1.00,-1.46,0.06,0.00,-3.50,11.50,43.00,53.650913,9.698375,4.70,0.19,12,3.950,0,-108,-27,5,3
275393,-0.00,0.02,1.00,-0.18,0.12,0.12,-2.50,11.50,44.00,53.650913,9.698375,4.70,0.09,12,3.950,0,-101,-28,5,3
275493,-0.02,0.01,1.01,-0.43,-0.06,-0.18,-2.50,11.50,42.00,53.650913,9.698375,4.70,0.63,12,3.970,-1,-105,-28,5,3
275594,-0.01,0.01,0.99,-0.67,0.12,0.12,-2.50,9.50,41.00,53.650913,9.698375,4.70,0.02,12,3.960,0,-105,-28,5,3
275702,-0.02,0.02,0.99,-0.24,0.00,-0.06,-2.50,11.50,47.00,53.650913,9.698375,4.70,0.35,12,3.97-1,0,-104,-28,5,3
275802,-0.01,0.03,0.99,-0.31,0.43,0.12,-0.50,12.50,47.00,53.650913,9.698375,4.70,0.44,12,3.97-1,0,-94,-27,5,3
275902,0.02,0.03,0.97,-1.40,0.31,-0.06,-2.50,11.50,42.00,53.650913,9.698375,4.70,0.44,12,3.94-1,0,-98,-28,5,3
276002,0.02,-0.07,1.06,0.92,0.67,-0.06,-2.50,11.50,45.00,53.650913,9.698375,4.70,0.44,12,3.943,1,-99,-28,5,3
276111,0.01,0.04,1.02,2.56,0.73,0.18,-4.50,11.50,42.00,53.650913,9.698375,4.70,0.20,12,3.94-2,0,-106,-27,5,3
276211,-0.00,0.01,1.03,2.38,-0.24,0.00,-3.50,11.50,43.00,53.650913,9.698375,4.70,0.31,12,3.980,0,-107,-28,5,3
276312,-0.01,-0.01,1.01,-1.77,-0.55,-0.49,-0.50,11.50,47.00,53.650913,9.698375,4.70,0.31,12,3.950,0,-94,-28,5,3
276413,-0.01,0.01,0.99,-3.91,-0.73,-0.06,-4.50,8.50,46.00,53.650913,9.698375,4.70,0.22,12,3.940,0,-118,-28,5,3
276513,-0.01,0.01,0.98,-1.95,0.00,0.12,0.50,11.50,42.00,53.650913,9.698375,4.70,0.15,12,3.910,0,-89,-28,5,3
276613,0.00,0.02,0.98,1.04,0.18,0.18,-1.50,10.50,40.00,53.650913,9.698375,4.70,0.22,12,3.96-1,0,-96,-28,5,3
276713,0.00,0.00,0.99,-0.61,0.06,0.18,-3.50,11.50,43.00,53.650913,9.698375,4.70,0.22,12,3.950,0,-106,-28,5,3
276830,0.01,-0.01,1.00,-1.53,0.06,-0.18,-2.50,11.50,46.00,53.650913,9.698375,4.70,0.06,12,3.860,0,-100,-27,5,3
276930,0.01,0.05,0.98,-2.26,0.00,-0.06,0.50,10.50,43.00,53.650913,9.698375,4.70,0.13,12,3.88-3,0,-86,-28,5,3
277030,-0.01,-0.01,1.02,0.98,0.43,0.18,-0.50,11.50,40.00,53.650913,9.698375,4.70,0.13,12,3.900,0,-94,-28,5,3
277130,-0.00,0.04,1.00,2.38,0.37,0.00,0.50,10.50,47.00,53.650913,9.698375,4.70,0.13,12,3.94-2,0,-88,-27,5,3
277230,-0.01,0.01,1.01,2.08,0.00,-0.06,-1.50,10.50,44.00,53.650913,9.698375,4.70,0.13,12,3.800,0,-99,-27,5,3
277330,-0.00,0.00,1.01,0.85,0.18,0.00,-2.50,11.50,42.00,53.650913,9.698375,4.70,0.13,12,3.880,0,-102,-28,5,3
277430,0.00,0.03,1.00,0.31,0.00,0.00,-4.50,8.50,40.00,53.650913,9.698375,4.70,0.13,12,3.83-1,0,-113,-28,5,3
277530,0.00,-0.00,1.00,0.55,0.00,-0.06,-2.50,11.50,44.00,53.650913,9.698375,4.70,0.13,12,3.910,0,-101,-28,5,3
277630,0.00,0.02,1.00,1.40,0.00,0.12,-2.50,11.50,48.00,53.650913,9.698375,4.70,0.13,12,3.990,0,-100,-28,5,3
277730,0.00,0.00,1.00,0.92,0.18,0.18,-2.50,11.50,43.00,53.650913,9.698375,4.70,0.13,12,3.940,0,-101,-28,5,3
277830,-0.00,0.01,1.00,0.37,-0.06,-0.06,-2.50,12.50,42.00,53.650913,9.698375,4.70,0.07,12,3.880,0,-101,-27,5,3
277930,0.00,0.02,1.00,0.43,0.06,0.00,-3.50,12.50,42.00,53.650913,9.698375,4.70,0.09,12,3.940,0,-104,-28,5,3
278032,0.00,-0.01,1.00,0.61,0.06,0.06,-1.50,12.50,45.00,53.650913,9.698375,4.70,0.09,12,3.950,0,-96,-28,5,3
278132,0.00,0.00,1.00,0.00,0.06,0.06,-2.50,11.50,46.00,53.650913,9.698375,4.70,0.09,12,3.850,0,-101,-28,5,3
278232,-0.00,0.01,1.00,0.06,0.18,0.00,-3.50,14.50,44.00,53.650913,9.698375,4.70,0.09,12,3.960,0,-103,-28,5,3
278332,-0.00,-0.00,1.00,-0.12,0.00,0.00,-2.50,12.50,40.00,53.650913,9.698375,4.70,0.09,12,3.920,0,-101,-27,5,3
278433,-0.00,0.00,1.00,-0.61,0.06,0.12,-2.50,12.50,41.00,53.650913,9.698375,4.70,0.09,12,3.950,0,-101,-28,5,3
278533,0.00,0.01,1.00,-0.18,0.00,0.00,-2.50,10.50,44.00,53.650913,9.698375,4.70,0.09,12,3.960,0,-102,-27,5,3
278633,0.00,0.00,1.00,0.37,0.00,-0.06,-3.50,11.50,46.00,53.650913,9.698375,4.70,0.09,12,4.010,0,-106,-28,5,3
278733,0.00,-0.00,1.00,0.31,0.06,0.31,-3.50,10.50,46.00,53.650913,9.698375,4.70,0.09,12,3.930,0,-107,-27,5,3
278833,-0.00,0.01,1.00,-0.61,-0.12,-0.06,-2.50,12.50,46.00,53.650913,9.698375,4.70,0.07,12,3.950,0,-100,-28,5,3
278933,0.00,-0.00,1.00,-0.49,0.00,0.00,-2.50,12.50,41.00,53.650913,9.698375,4.70,0.13,12,3.960,0,-101,-27,5,3
279048,0.00,0.01,1.00,0.43,0.00,0.00,-1.50,12.50,43.00,53.650913,9.698375,4.70,0.02,12,3.780,0,-96,-28,5,3
279152,0.02,0.01,1.01,-0.24,-0.24,-0.24,-3.50,11.50,42.00,53.650913,9.698375,4.70,0.02,12,3.890,1,-102,-27,5,3
279252,0.01,0.01,1.00,-0.18,-0.24,0.00,-0.50,12.50,45.00,53.650913,9.698375,4.70,0.02,12,3.970,0,-90,-28,5,3
279355,0.02,0.01,1.00,-0.12,-0.67,-0.31,-1.50,11.50,43.00,53.650913,9.698375,4.70,0.02,12,3.950,1,-93,-28,5,3
279455,0.01,0.00,0.99,0.00,0.06,0.06,-2.50,10.50,45.00,53.650913,9.698375,4.70,0.02,12,3.910,0,-101,-27,5,3
279555,-0.00,0.01,1.00,0.43,-0.06,-0.06,-2.50,11.50,42.00,53.650913,9.698375,4.70,0.02,12,3.980,0,-102,-28,5,3
279656,-0.00,0.00,1.00,-0.06,0.00,-0.12,-1.50,11.50,42.00,53.650913,9.698375,4.70,0.02,12,3.810,0,-98,-27,5,3
279757,-0.00,0.00,1.00,-0.61,0.00,-0.06,-3.50,9.50,45.00,53.650913,9.698375,4.70,0.02,12,4.060,0,-111,-28,5,3
279857,-0.00,0.01,0.99,0.00,0.00,0.12,-2.50,10.50,40.00,53.650913,9.698375,4.70,0.02,12,3.880,0,-103,-28,5,3
279957,0.00,0.00,0.99,0.37,0.00,0.12,-4.50,10.50,45.00,53.650913,9.698375,4.70,0.02,12,3.950,0,-112,-28,5,3
280057,-0.00,0.01,1.00,0.31,0.18,0.00,-1.50,8.50,46.00,53.650913,9.698375,4.70,0.02,12,3.940,0,-99,-28,5,3
280170,-0.00,-0.00,1.00,-0.12,0.06,0.06,-0.50,10.50,46.00,53.650913,9.698375,4.70,0.02,12,3.930,0,-93,-27,5,3
280270,-0.00,0.01,1.00,-0.06,0.18,0.06,-2.50,11.50,43.00,53.650913,9.698375,4.70,0.02,12,3.930,0,-102,-27,5,3
280371,0.00,0.00,1.00,-0.31,-0.06,0.00,-2.50,11.50,41.00,53.650913,9.698375,4.70,0.02,12,3.960,0,-101,-27,5,3
280471,0.00,0.01,1.00,-0.37,0.06,-0.06,-3.50,13.50,44.00,53.650913,9.698375,4.70,0.02,12,3.930,0,-103,-28,5,3
280571,0.00,0.01,1.00,0.31,0.06,0.06,-2.50,10.50,42.00,53.650913,9.698375,4.70,0.02,12,3.960,0,-102,-28,5,3
280671,0.00,0.00,1.00,0.37,0.06,0.12,-1.50,10.50,44.00,53.650913,9.698375,4.70,0.02,12,3.960,0,-97,-27,5,3
280774,0.00,0.01,1.00,-0.06,0.06,0.00,-0.50,10.50,45.00,53.650913,9.698375,4.70,0.02,12,3.950,0,-92,-27,5,3
280874,0.00,0.00,1.00,-0.31,0.06,-0.12,-3.50,12.50,43.00,53.650913,9.698375,4.70,0.02,12,3.780,0,-105,-27,5,3
280974,0.00,0.01,1.00,0.43,-0.06,-0.06,-4.50,12.50,41.00,53.650913,9.698375,4.70,0.19,12,3.960,0,-109,-28,5,3
281074,-0.00,0.00,1.00,0.31,0.12,-0.12,-1.50,11.50,43.00,53.650913,9.698375,4.70,0.19,12,3.890,0,-97,-27,5,3
281174,-0.00,-0.00,1.00,-0.24,0.00,0.12,-0.50,11.50,45.00,53.650913,9.698375,4.70,0.19,12,3.950,0,-92,-28,5,3
281274,-0.00,0.01,1.00,-0.24,0.00,0.06,-2.50,10.50,45.00,53.650913,9.698375,4.70,0.19,12,3.860,0,-103,-27,5,3
281374,0.00,-0.00,1.00,0.00,0.06,0.00,-2.50,10.50,46.00,53.650913,9.698375,4.70,0.19,12,3.870,0,-102,-27,5,3
281474,0.01,0.01,1.00,0.31,0.06,0.18,-4.50,10.50,42.00,53.650913,9.698375,4.70,0.19,12,3.910,0,-111,-28,5,3
281574,0.00,0.01,1.00,0.24,0.00,-0.12,-3.50,8.50,45.00,53.650913,9.698375,4.70,0.19,12,3.910,0,-110,-27,5,3
281674,0.00,-0.00,1.00,0.24,0.00,-0.18,-1.50,11.50,39.00,53.650913,9.698375,4.70,0.19,12,3.960,0,-96,-27,5,3
281774,0.00,0.00,1.01,0.00,0.06,0.37,-2.50,11.50,45.00,53.650913,9.698375,4.70,0.19,12,3.800,0,-101,-27,5,3
281874,0.00,0.01,1.00,-0.49,0.00,-0.31,-1.50,11.50,42.00,53.650913,9.698375,4.70,0.19,12,3.950,0,-96,-28,5,3
281974,0.00,-0.00,1.00,-0.49,0.00,-0.06,-2.50,10.50,45.00,53.650917,9.698375,4.70,0.04,12,3.870,0,-102,-28,5,3
282074,0.00,0.00,0.99,-0.06,0.12,0.18,-0.50,12.50,45.00,53.650917,9.698375,4.70,0.04,12,3.950,0,-91,-27,5,3
282174,0.00,0.02,1.00,0.24,0.12,0.00,-2.50,12.50,46.00,53.650917,9.698375,4.70,0.04,12,3.950,0,-100,-27,5,3
282274,0.00,-0.01,1.00,-0.49,0.00,-0.18,-4.50,13.50,46.00,53.650917,9.698375,4.70,0.04,12,3.960,0,-108,-27,5,3
282422,0.01,0.02,1.00,-0.67,-0.06,-0.12,-1.50,12.50,44.00,53.650917,9.698375,4.70,0.04,12,3.96-1,0,-95,-27,5,3
282522,-0.00,0.00,0.99,0.92,0.06,-0.31,-2.50,11.50,43.00,53.650917,9.698375,4.70,0.04,12,3.930,0,-102,-27,5,3
282622,0.00,-0.01,1.00,0.06,0.18,0.24,-4.50,12.50,44.00,53.650917,9.698375,4.70,0.22,12,3.870,0,-109,-27,5,3
282722,0.00,0.03,1.01,0.06,0.18,0.06,-0.50,12.50,41.00,53.650917,9.698375,4.70,0.22,12,3.84-1,0,-91,-27,5,3
282822,0.00,-0.01,1.01,0.92,0.06,0.00,-3.50,11.50,46.00,53.650917,9.698375,4.70,0.17,12,3.910,0,-107,-27,5,3
282922,0.00,0.00,1.00,0.79,0.06,0.18,-2.50,13.50,48.00,53.650917,9.698375,4.70,0.04,12,3.940,0,-99,-27,5,3
283022,0.00,0.02,0.99,0.00,0.06,0.12,-1.50,10.50,43.00,53.650917,9.698375,4.70,0.13,12,3.950,0,-97,-28,5,3
283123,-0.00,-0.01,0.99,0.12,0.00,-0.06,-1.50,12.50,46.00,53.650917,9.698375,4.70,0.02,12,3.960,0,-97,-28,5,3
283223,-0.00,-0.00,0.99,1.65,0.06,0.43,-2.50,11.50,41.00,53.650917,9.698375,4.70,0.02,12,3.880,0,-102,-27,5,3
283323,-0.00,-0.01,1.01,4.39,0.37,0.73,-4.50,12.50,45.00,53.650917,9.698375,4.60,0.02,12,3.900,0,-110,-27,5,3
283423,-0.00,0.01,1.02,2.14,0.12,-0.06,-0.50,10.50,42.00,53.650917,9.698375,4.60,0.07,12,3.960,0,-93,-27,5,3
283523,0.00,-0.04,1.00,-0.73,0.06,-0.12,-3.50,10.50,44.00,53.650917,9.698374,4.60,0.07,12,3.932,0,-110,-27,5,3
283623,0.00,0.01,1.01,-1.46,-0.06,-0.24,-3.50,8.50,42.00,53.650917,9.698375,4.60,0.07,12,3.950,0,-111,-27,5,3
283723,0.00,-0.02,1.00,-0.85,0.06,-0.06,-1.50,12.50,42.00,53.650917,9.698375,4.70,0.07,12,3.801,0,-96,-27,5,3
283823,-0.00,0.00,1.00,1.04,0.06,-0.06,-1.50,9.50,43.00,53.650917,9.698374,4.60,0.26,12,3.860,0,-98,-27,5,3
283923,0.00,-0.02,1.00,0.67,0.12,0.24,-4.50,8.50,43.00,53.650917,9.698374,4.60,0.07,12,3.911,0,-119,-27,5,3
284023,0.00,-0.01,1.00,-0.79,-0.06,-0.06,-0.50,13.50,44.00,53.650917,9.698374,4.60,0.09,12,4.030,0,-91,-28,5,3
284123,0.00,-0.01,1.00,-1.53,0.00,-0.12,-2.50,10.50,45.00,53.650917,9.698374,4.60,0.09,12,3.930,0,-102,-27,5,3
284223,-0.00,-0.01,1.00,-0.43,0.06,-0.18,-4.50,11.50,46.00,53.650917,9.698374,4.60,0.09,12,3.880,0,-112,-27,5,3
284323,-0.00,0.01,1.00,0.24,0.00,-0.12,-2.50,10.50,48.00,53.650917,9.698374,4.60,0.09,12,3.900,0,-103,-27,5,3
284438,-0.00,-0.00,1.00,-0.55,0.12,-0.12,-1.50,9.50,47.00,53.650917,9.698374,4.60,0.09,12,4.060,0,-100,-27,5,3
284538,-0.00,-0.01,1.00,0.85,0.12,-0.06,-2.50,8.50,43.00,53.650917,9.698374,4.60,0.09,12,3.790,0,-107,-27,5,3
284639,-0.00,-0.01,1.01,1.71,0.24,0.37,-4.50,11.50,43.00,53.650917,9.698374,4.60,0.09,12,3.970,0,-112,-27,5,3
284739,0.00,-0.01,1.00,1.28,0.00,0.00,-2.50,8.50,45.00,53.650917,9.698374,4.60,0.09,12,3.860,0,-106,-27,5,3
284839,0.00,-0.01,1.00,-1.89,0.00,0.00,-2.50,14.50,48.00,53.650917,9.698374,4.60,0.09,12,3.890,0,-99,-27,5,3
284940,-0.00,-0.03,1.01,-3.11,-0.18,-0.18,-2.50,12.50,37.00,53.650917,9.698374,4.60,0.09,12,3.891,0,-102,-27,5,3
285040,-0.00,0.04,0.99,-0.37,0.06,-0.06,-3.50,12.50,46.00,53.650917,9.698374,4.60,0.09,12,3.84-2,0,-104,-27,5,3
285140,0.00,-0.04,1.01,0.37,0.18,0.37,-3.50,11.50,45.00,53.650917,9.698374,4.60,0.09,12,3.992,0,-108,-28,5,3
285240,0.01,0.02,0.99,-1.28,-0.06,0.37,-1.50,13.50,47.00,53.650917,9.698374,4.60,0.09,12,3.93-1,0,-94,-27,5,3
285340,0.00,-0.00,1.01,-1.40,-0.06,0.67,-3.50,11.50,44.00,53.650917,9.698374,4.60,0.09,12,3.830,0,-107,-27,5,3
285440,-0.00,0.03,0.99,-0.31,0.00,-0.31,-1.50,9.50,46.00,53.650917,9.698374,4.60,0.09,12,3.95-1,0,-98,-27,5,3
285540,-0.00,-0.00,1.01,0.85,0.18,-0.18,-3.50,11.50,43.00,53.650917,9.698374,4.60,0.09,12,3.890,0,-107,-27,5,3
285651,-0.00,-0.00,1.00,1.22,0.18,-0.24,-2.50,10.50,46.00,53.650917,9.698374,4.60,0.09,12,3.970,0,-103,-27,5,3
285751,-0.00,-0.01,1.00,-0.43,0.00,0.12,-1.50,13.50,46.00,53.650917,9.698374,4.60,0.09,12,3.950,0,-97,-27,5,3
285851,-0.00,0.00,1.00,-0.61,0.00,0.24,-1.50,11.50,45.00,53.650917,9.698374,4.60,0.09,12,3.960,0,-98,-27,5,3
285952,-0.00,0.01,1.00,1.46,0.31,0.00,-2.50,10.50,40.00,53.650917,9.698374,4.60,0.09,12,3.880,0,-102,-27,5,3
286052,0.00,-0.01,1.01,2.01,0.24,0.12,-4.50,6.50,40.00,53.650917,9.698374,4.60,0.09,12,3.930,0,-126,-27,5,3
286152,0.00,-0.00,1.00,1.28,0.12,0.12,-2.50,13.50,44.00,53.650917,9.698374,4.60,0.09,12,3.960,0,-100,-27,5,3
286264,0.00,-0.01,1.00,-1.22,0.00,0.06,-1.50,8.50,41.00,53.650917,9.698374,4.60,0.09,12,3.960,0,-99,-27,5,3
286364,0.00,-0.01,1.00,-2.26,-0.18,0.06,-2.50,10.50,42.00,53.650917,9.698374,4.60,0.09,12,3.960,0,-103,-27,5,3
286472,0.00,0.00,1.00,-1.22,0.00,0.24,-2.50,10.50,45.00,53.650917,9.698374,4.60,0.09,12,3.960,0,-102,-27,5,3
286572,0.00,0.01,1.00,0.55,0.00,0.06,-5.50,9.50,44.00,53.650917,9.698374,4.60,0.09,12,3.940,0,-118,-27,5,3
286672,0.00,0.00,1.00,0.98,0.18,0.18,-2.50,9.50,46.00,53.650917,9.698374,4.60,0.09,12,3.990,0,-104,-27,5,3
286775,0.00,-0.00,1.00,-0.49,0.00,-0.06,-1.50,9.50,39.00,53.650917,9.698374,4.60,0.09,12,3.960,0,-98,-27,5,3
286875,0.00,0.00,1.00,-1.28,-0.12,-0.06,-1.50,9.50,39.00,53.650917,9.698374,4.60,0.09,12,4.000,0,-98,-27,5,3
286975,-0.00,0.01,1.00,-0.79,0.00,0.12,-4.50,10.50,44.00,53.650917,9.698374,4.60,0.09,12,3.990,0,-112,-28,5,3
287075,0.00,0.01,1.00,0.49,0.06,0.12,-3.50,14.50,45.00,53.650917,9.698374,4.60,0.09,12,3.930,0,-103,-27,5,3
287175,-0.01,0.01,1.01,1.16,0.12,0.00,-0.50,10.50,42.00,53.650917,9.698374,4.60,0.09,12,3.950,0,-94,-27,5,3
287275,-0.00,0.01,1.00,1.89,0.31,0.12,-0.50,10.50,42.00,53.650917,9.698374,4.60,0.09,12,3.990,0,-93,-27,5,3
287375,-0.01,-0.01,1.01,-0.12,0.12,-0.12,-1.50,11.50,45.00,53.650917,9.698374,4.60,0.09,12,3.990,0,-99,-27,5,3
287475,0.00,-0.01,1.00,-0.85,0.00,0.06,-4.50,13.50,42.00,53.650917,9.698374,4.60,0.09,12,3.950,0,-108,-27,5,3
287575,0.00,0.01,1.00,-0.24,-0.06,0.37,-3.50,10.50,49.00,53.650917,9.698374,4.60,0.09,12,3.970,0,-107,-27,5,3
287675,0.00,0.00,1.00,0.24,-0.06,0.00,-4.50,11.50,47.00,53.650917,9.698374,4.60,0.09,12,3.950,0,-111,-28,5,3
287775,0.00,0.01,1.00,0.49,0.06,0.06,-2.50,9.50,38.00,53.650917,9.698374,4.60,0.09,12,3.940,0,-103,-27,5,3
287875,0.00,-0.01,1.01,0.31,0.06,0.00,-3.50,10.50,47.00,53.650917,9.698374,4.60,0.09,12,3.940,0,-108,-27,5,3
287975,0.00,0.01,1.00,-0.43,-0.06,-0.12,-2.50,12.50,46.00,53.650917,9.698374,4.60,0.09,12,3.990,0,-100,-27,5,3
288077,-0.00,-0.00,1.00,-1.04,0.00,0.00,-1.50,12.50,44.00,53.650917,9.698374,4.60,0.09,12,3.930,0,-96,-28,5,3
288178,-0.00,0.01,1.00,-0.73,0.06,0.06,-2.50,11.50,46.00,53.650917,9.698374,4.60,0.09,12,3.930,0,-101,-27,5,3
288278,0.00,0.00,1.00,0.98,0.06,0.12,-0.50,11.50,42.00,53.650917,9.698374,4.60,0.09,12,3.990,0,-92,-27,5,3
288379,0.00,-0.00,1.00,1.46,0.18,0.06,-3.50,11.50,45.00,53.650917,9.698374,4.60,0.09,12,4.000,0,-107,-27,5,3
288484,0.00,0.00,1.00,0.61,0.06,0.12,-1.50,11.50,45.00,53.650917,9.698374,4.60,0.09,12,4.000,0,-97,-27,5,3
288584,-0.00,-0.01,1.00,-0.43,-0.06,0.00,-5.50,10.50,44.00,53.650917,9.698374,4.60,0.09,12,3.990,0,-118,-27,5,3
288684,0.00,0.00,1.00,-1.10,0.00,-0.12,-1.50,14.50,46.00,53.650917,9.698374,4.60,0.09,12,3.860,0,-95,-27,5,3
288784,-0.00,0.00,1.00,-0.73,0.00,0.06,1.50,14.50,49.00,53.650917,9.698374,4.60,0.09,12,3.970,0,-84,-27,5,3
288884,-0.00,0.01,1.00,-0.67,0.06,0.00,-1.50,11.50,40.00,53.650917,9.698374,4.60,0.09,12,3.950,0,-97,-27,5,3
288984,-0.00,0.00,1.00,0.37,0.06,0.18,-1.50,12.50,40.00,53.650917,9.698374,4.60,0.09,12,3.940,0,-96,-28,5,3
289085,0.00,0.01,1.00,1.10,0.12,0.18,-3.50,12.50,45.00,53.650917,9.698374,4.60,0.09,12,3.950,0,-105,-27,5,3
289185,0.00,0.00,1.00,1.22,0.12,0.12,-2.50,10.50,46.00,53.650917,9.698374,4.60,0.09,12,3.960,0,-103,-27,5,3
289285,0.01,-0.00,1.00,0.12,0.12,0.06,-1.50,12.50,46.00,53.650917,9.698374,4.60,0.09,12,3.960,0,-95,-27,5,3
289385,0.00,-0.00,1.00,-0.31,-0.06,-0.06,-1.50,11.50,44.00,53.650917,9.698374,4.60,0.09,12,3.980,0,-96,-27,5,3
289485,0.00,0.00,1.00,-0.37,0.06,0.06,-2.50,11.50,43.00,53.650917,9.698373,4.60,0.13,12,4.050,0,-101,-27,5,3
289585,0.00,0.00,1.00,0.18,0.06,0.00,-2.50,12.50,43.00,53.650917,9.698373,4.60,0.13,12,3.970,0,-100,-27,5,3
289685,0.00,0.00,1.00,0.31,0.00,0.12,-2.50,11.50,47.00,53.650917,9.698373,4.60,0.13,12,3.900,0,-101,-27,5,3
289789,0.00,-0.00,1.00,0.43,0.06,0.00,-3.50,12.50,45.00,53.650917,9.698373,4.60,0.13,12,3.930,0,-105,-27,5,3
289889,0.00,-0.00,1.00,-0.37,0.06,0.06,-0.50,8.50,44.00,53.650917,9.698373,4.60,0.13,12,4.010,0,-93,-27,5,3
289989,0.00,-0.00,1.00,-0.37,0.00,0.06,-2.50,12.50,41.00,53.650917,9.698373,4.60,0.13,12,3.930,0,-101,-27,5,3
290089,0.00,0.01,1.00,0.37,0.12,0.12,-1.50,12.50,50.00,53.650917,9.698373,4.60,0.13,12,3.960,0,-96,-27,5,3
290189,-0.00,-0.00,1.00,1.04,0.18,0.00,-1.50,11.50,45.00,53.650917,9.698373,4.60,0.13,12,3.990,0,-97,-27,5,3
290289,-0.00,-0.00,1.00,0.92,0.12,0.00,-1.50,12.50,46.00,53.650917,9.698373,4.60,0.13,12,3.990,0,-96,-27,5,3
290389,0.00,-0.01,1.00,0.12,0.18,-0.06,-1.50,12.50,46.00,53.650917,9.698373,4.60,0.13,12,3.980,0,-96,-27,5,3
290501,-0.00,0.01,1.00,0.85,0.06,0.06,-4.50,10.50,42.00,53.650917,9.698374,4.60,0.11,12,3.960,0,-112,-27,5,3
290602,0.00,-0.01,1.00,-1.40,0.06,0.06,-2.50,10.50,45.00,53.650917,9.698374,4.60,0.06,12,3.900,0,-104,-27,5,3
290702,0.01,-0.02,1.01,-1.04,0.31,0.24,-1.50,10.50,42.00,53.650917,9.698374,4.60,0.04,12,3.881,0,-96,-27,5,3
290802,-0.01,0.02,1.01,-0.24,-0.12,0.00,-4.50,10.50,40.00,53.650917,9.698374,4.60,0.04,12,4.00-1,0,-112,-27,5,3
290905,-0.00,-0.03,1.01,1.28,-0.06,-0.12,-3.50,10.50,45.00,53.650917,9.698374,4.60,0.04,12,3.951,0,-111,-27,5,3
291005,-0.00,0.02,1.01,0.61,-0.12,0.00,-5.50,10.50,40.00,53.650917,9.698374,4.50,0.06,12,3.96-1,0,-116,-27,5,3
291105,-0.00,-0.02,1.00,-0.24,0.00,0.18,-2.50,10.50,42.00,53.650917,9.698374,4.50,0.04,12,3.871,0,-105,-27,5,3
291205,-0.00,0.02,1.00,-0.43,-0.12,-0.18,-1.50,14.50,43.00,53.650917,9.698374,4.50,0.06,12,3.890,0,-95,-28,5,3
291305,0.00,-0.01,1.00,-0.06,0.06,0.06,-3.50,9.50,43.00,53.650917,9.698374,4.50,0.11,12,3.970,0,-110,-28,5,3
291405,-0.00,0.00,1.00,0.12,0.12,-0.06,-5.50,8.50,45.00,53.650917,9.698374,4.50,0.07,12,3.960,0,-122,-27,5,3
291505,-0.00,-0.01,0.99,-0.18,0.06,0.00,-4.50,9.50,43.00,53.650917,9.698374,4.50,0.11,12,3.820,0,-115,-27,5,3
291605,0.00,0.00,1.00,0.24,0.00,0.00,-3.50,10.50,43.00,53.650917,9.698374,4.50,0.04,12,3.960,0,-108,-27,5,3
291705,-0.00,-0.01,1.00,0.67,0.18,0.12,-4.50,10.50,43.00,53.650917,9.698374,4.50,0.00,12,3.880,0,-113,-27,5,3
291806,0.00,-0.00,1.00,1.04,0.00,0.18,-4.50,10.50,46.00,53.650917,9.698374,4.50,0.13,12,3.930,0,-112,-28,5,3
291906,0.00,-0.01,1.00,0.06,0.00,0.00,-3.50,10.50,46.00,53.650917,9.698374,4.50,0.13,12,3.880,0,-109,-27,5,3
292006,0.00,-0.00,1.00,-0.18,0.00,0.12,-1.50,11.50,41.00,53.650917,9.698374,4.50,0.13,12,3.820,0,-97,-27,5,3
292107,0.00,-0.01,1.00,0.18,0.06,0.00,-3.50,10.50,45.00,53.650917,9.698374,4.50,0.02,12,3.960,0,-108,-27,5,3
292211,-0.00,0.00,1.00,0.49,0.06,0.12,-4.50,10.50,46.00,53.650917,9.698374,4.50,0.19,12,3.830,0,-113,-27,5,3
292341,0.00,-0.00,1.00,0.85,0.06,0.00,-3.50,12.50,38.00,53.650917,9.698374,4.50,0.11,12,4.030,0,-105,-27,5,3
292441,-0.00,-0.02,1.00,0.61,0.06,0.12,-3.50,11.50,39.00,53.650917,9.698374,4.50,0.11,12,3.840,0,-108,-27,5,3
292541,-0.00,-0.01,1.00,-0.49,0.06,0.00,-2.50,12.50,43.00,53.650917,9.698374,4.50,0.11,12,3.790,0,-102,-28,5,3
292641,-0.00,-0.01,1.00,-1.10,-0.06,0.37,-3.50,12.50,41.00,53.650917,9.698374,4.50,0.11,12,3.890,0,-106,-27,5,3
292741,0.00,-0.01,1.00,-0.24,0.00,0.00,-2.50,10.50,48.00,53.650917,9.698374,4.50,0.11,12,3.920,0,-103,-27,5,3
292841,0.00,-0.00,1.00,0.43,0.06,0.06,-2.50,11.50,43.00,53.650917,9.698374,4.50,0.07,12,3.810,0,-102,-27,5,3
292941,0.00,-0.02,1.00,0.61,0.06,-0.06,-4.50,11.50,43.00,53.650917,9.698374,4.50,0.07,12,3.940,0,-111,-27,5,3
293041,0.00,-0.00,1.00,0.18,0.12,0.18,-1.50,10.50,43.00,53.650917,9.698374,4.50,0.07,12,3.940,0,-98,-27,5,3
293141,0.00,-0.02,1.00,0.00,-0.06,0.06,-3.50,8.50,41.00,53.650917,9.698374,4.50,0.07,12,3.760,0,-113,-27,5,3
293241,0.00,0.01,1.00,-0.37,0.00,0.12,-3.50,8.50,41.00,53.650917,9.698374,4.50,0.07,12,3.920,0,-111,-27,5,3
293341,-0.00,-0.02,1.00,0.31,0.06,0.00,-2.50,12.50,42.00,53.650917,9.698374,4.50,0.07,12,3.941,0,-102,-28,5,3
293441,-0.00,0.02,1.00,-0.31,0.12,0.18,-2.50,12.50,45.00,53.650917,9.698374,4.50,0.07,12,3.830,0,-100,-27,5,3
293541,0.00,-0.03,1.00,-0.31,0.00,0.06,-2.50,12.50,41.00,53.650917,9.698374,4.50,0.07,12,3.931,0,-102,-27,5,3
293641,0.00,0.02,1.00,-0.24,0.06,0.12,-2.50,8.50,43.00,53.650917,9.698374,4.50,0.07,12,3.99-1,0,-104,-27,5,3
293741,0.00,-0.02,1.00,-0.24,0.00,0.06,-2.50,8.50,49.00,53.650917,9.698374,4.50,0.07,12,3.961,0,-107,-27,5,3
293841,0.00,0.01,1.00,-0.43,-0.06,0.06,-3.50,11.50,39.00,53.650917,9.698374,4.50,0.09,12,3.940,0,-106,-27,5,3
293941,0.00,-0.01,1.00,0.49,0.06,0.00,-0.50,10.50,40.00,53.650917,9.698374,4.50,0.07,12,3.880,0,-92,-27,5,3
294041,0.00,0.00,1.00,0.43,0.06,0.18,-2.50,11.50,42.00,53.650917,9.698374,4.50,0.07,12,3.940,0,-102,-27,5,3
294143,0.00,-0.01,1.00,0.00,0.00,-0.06,-1.50,12.50,41.00,53.650917,9.698374,4.50,0.07,12,3.950,0,-96,-27,5,3
294243,-0.00,0.00,1.00,-0.92,0.00,0.00,-1.50,12.50,41.00,53.650917,9.698374,4.50,0.07,12,3.880,0,-96,-27,5,3
294343,0.00,-0.01,1.00,-0.31,0.00,0.00,-0.50,11.50,43.00,53.650917,9.698374,4.50,0.07,12,3.870,0,-92,-27,5,3
294443,0.00,-0.00,1.00,0.31,0.06,0.00,-0.50,12.50,42.00,53.650917,9.698374,4.50,0.07,12,3.960,0,-91,-27,5,3
294599,0.00,-0.01,1.00,0.98,0.06,0.00,-3.50,13.50,45.00,53.650917,9.698374,4.50,0.07,12,3.950,0,-104,-27,5,3
294699,0.00,-0.01,1.00,0.31,0.06,0.06,-1.50,11.50,45.00,53.650917,9.698374,4.50,0.13,12,4.010,0,-97,-27,5,3
294799,0.00,-0.01,1.00,-1.53,-0.12,0.12,-1.50,11.50,42.00,53.650917,9.698374,4.50,0.13,12,3.750,0,-97,-27,5,3
294899,0.00,0.01,0.99,-1.28,-0.06,0.12,-4.50,13.50,47.00,53.650917,9.698374,4.50,0.13,12,3.950,0,-107,-27,5,3
294999,0.00,-0.00,1.00,0.37,0.06,0.18,-2.50,11.50,43.00,53.650917,9.698374,4.50,0.13,12,3.980,0,-101,-27,5,3
295099,0.01,0.00,0.99,1.65,0.12,0.31,-2.50,11.50,48.00,53.650917,9.698374,4.50,0.13,12,3.960,0,-100,-27,5,3
295199,-0.00,-0.00,1.00,0.85,0.06,0.18,-4.50,10.50,43.00,53.650917,9.698374,4.50,0.13,12,3.840,0,-113,-27,5,3
295299,0.00,-0.01,0.99,-1.10,-0.06,-0.18,-2.50,9.50,45.00,53.650917,9.698374,4.50,0.13,12,3.950,0,-105,-27,5,3
295399,0.00,0.00,1.00,-1.16,0.06,-0.06,-3.50,9.50,43.00,53.650917,9.698374,4.50,0.09,12,3.970,0,-109,-28,5,3
295499,-0.00,-0.01,1.00,-1.59,0.00,0.12,-4.50,10.50,41.00,53.650917,9.698374,4.50,0.09,12,4.010,0,-114,-27,5,3
295599,-0.01,0.02,1.00,-0.12,0.12,0.00,-1.50,11.50,45.00,53.650917,9.698374,4.50,0.17,12,3.980,0,-98,-27,5,3
295699,-0.01,-0.00,1.01,1.22,0.24,0.06,-2.50,10.50,45.00,53.650917,9.698374,4.50,0.17,12,4.000,0,-105,-27,5,3
295799,-0.01,-0.01,1.00,0.73,0.24,-0.06,-3.50,10.50,46.00,53.650917,9.698374,4.50,0.22,12,3.990,0,-110,-27,5,3
295899,-0.00,-0.00,1.00,0.00,0.06,0.18,-2.50,10.50,48.00,53.650917,9.698374,4.50,0.22,12,3.980,0,-103,-27,5,3
295999,-0.00,-0.01,1.00,-1.46,-0.06,0.00,-1.50,11.50,43.00,53.650917,9.698374,4.50,0.22,12,3.960,0,-98,-27,5,3
296099,-0.00,0.01,1.01,-1.59,-0.06,0.18,-2.50,11.50,42.00,53.650917,9.698374,4.50,0.22,12,3.850,0,-102,-27,5,3
296199,0.00,-0.00,1.00,0.24,0.00,0.00,-1.50,10.50,44.00,53.650917,9.698374,4.50,0.22,12,3.960,0,-98,-27,5,3
296299,-0.00,0.00,1.01,1.34,0.12,-0.06,-3.50,8.50,44.00,53.650917,9.698374,4.50,0.22,12,3.960,0,-112,-27,5,3
296414,0.00,0.00,1.00,1.10,0.18,0.06,-4.50,11.50,48.00,53.650917,9.698374,4.50,0.22,12,3.960,0,-110,-27,5,3
296516,0.00,-0.02,1.01,0.12,0.06,-0.06,-1.50,10.50,43.00,53.650917,9.698374,4.50,0.24,12,3.960,0,-98,-27,5,3
296621,0.00,0.02,1.00,-0.55,0.00,0.12,-1.50,10.50,46.00,53.650917,9.698374,4.50,0.17,12,3.98-1,0,-97,-28,5,3
296818,0.00,0.01,1.00,0.85,0.12,0.12,-1.50,11.50,41.00,53.650917,9.698374,4.50,0.17,12,3.980,0,-96,-28,5,3
296918,0.00,-0.02,1.00,0.73,0.06,0.00,-4.50,10.50,47.00,53.650917,9.698374,4.50,0.17,12,4.010,0,-114,-27,5,3
297018,0.00,0.00,1.00,0.00,0.00,0.12,-4.50,11.50,40.00,53.650917,9.698374,4.50,0.09,12,3.720,0,-110,-28,5,3
297118,0.00,-0.02,1.00,0.12,0.00,-0.06,-2.50,10.50,42.00,53.650917,9.698374,4.50,0.44,12,3.960,0,-103,-27,5,3
297218,0.00,0.01,1.00,-0.24,0.06,0.12,-4.50,12.50,49.00,53.650917,9.698374,4.40,0.11,12,3.980,0,-108,-27,5,3
297318,0.00,-0.02,1.00,-0.06,0.00,0.00,-2.50,8.50,43.00,53.650917,9.698374,4.40,0.09,12,3.980,0,-106,-27,5,3
297418,0.00,0.00,1.00,0.06,0.00,0.06,-0.50,8.50,41.00,53.650917,9.698374,4.40,0.15,12,4.010,0,-92,-27,5,3
297518,0.00,-0.00,1.00,0.06,0.00,0.12,-3.50,10.50,45.00,53.650917,9.698374,4.40,0.02,12,4.080,0,-108,-27,5,3
297618,0.00,-0.01,1.00,0.06,0.00,-0.06,-3.50,10.50,39.00,53.650917,9.698374,4.40,0.20,12,3.980,0,-108,-27,5,3
297719,0.00,0.00,1.00,-0.73,0.00,0.12,-2.50,11.50,46.00,53.650917,9.698374,4.40,0.17,12,4.000,0,-101,-27,5,3
297820,0.00,-0.01,1.00,-0.24,0.00,-0.06,-3.50,11.50,46.00,53.650917,9.698374,4.40,0.17,12,3.990,0,-107,-28,5,3
297920,0.00,0.01,1.00,-0.12,0.12,0.12,-3.50,12.50,42.00,53.650917,9.698374,4.40,0.17,12,3.940,0,-105,-27,5,3
298020,0.00,-0.01,1.00,0.31,0.12,0.06,-2.50,10.50,43.00,53.650917,9.698374,4.40,0.17,12,3.950,0,-103,-27,5,3
298120,0.00,0.00,1.00,-0.06,0.06,0.00,-2.50,10.50,44.00,53.650917,9.698374,4.40,0.11,12,3.950,0,-103,-27,5,3
298220,0.00,-0.01,1.00,-0.24,0.06,0.06,-4.50,11.50,49.00,53.650917,9.698374,4.40,0.31,12,3.990,0,-111,-27,5,3
298320,0.00,0.00,1.00,0.06,0.00,0.00,-2.50,11.50,44.00,53.650917,9.698374,4.40,0.31,12,3.950,0,-102,-27,5,3
298420,0.00,-0.00,1.00,0.24,0.00,0.00,-2.50,11.50,43.00,53.650917,9.698374,4.40,0.11,12,3.930,0,-102,-28,5,3
298520,0.00,-0.00,1.00,0.12,0.06,0.00,-1.50,11.50,46.00,53.650917,9.698374,4.40,0.19,12,4.000,0,-97,-27,5,3
298620,0.00,-0.00,1.00,0.00,0.06,0.06,-4.50,10.50,45.00,53.650917,9.698374,4.40,0.07,12,4.000,0,-113,-27,5,3
298720,0.00,-0.00,1.00,0.06,0.00,0.12,-3.50,11.50,46.00,53.650917,9.698374,4.40,0.07,12,4.000,0,-106,-27,5,3
298820,0.00,-0.00,1.00,0.18,0.00,0.06,-2.50,12.50,47.00,53.650917,9.698374,4.40,0.07,12,4.000,0,-100,-27,5,3
298920,0.00,-0.01,1.00,0.00,0.12,0.00,-1.50,11.50,42.00,53.650917,9.698374,4.40,0.17,12,3.790,0,-97,-27,5,3
299020,0.00,-0.00,1.00,-0.06,0.12,-0.06,-1.50,11.50,43.00,53.650917,9.698374,4.40,0.07,12,3.890,0,-97,-27,5,3
299120,0.00,-0.01,1.00,-0.12,0.00,0.06,-4.50,10.50,38.00,53.650917,9.698374,4.40,0.11,12,3.960,0,-113,-27,5,3
299220,0.00,-0.00,1.00,0.06,0.00,0.00,-2.50,11.50,45.00,53.650917,9.698374,4.40,0.11,12,3.930,0,-102,-28,5,3
299320,0.00,-0.00,1.00,0.06,0.06,0.06,-4.50,13.50,38.00,53.650917,9.698374,4.40,0.09,12,3.990,0,-108,-27,5,3
299420,0.00,-0.01,1.00,0.24,0.06,0.00,-2.50,10.50,46.00,53.650917,9.698374,4.40,0.13,12,3.940,0,-103,-27,5,3
299520,0.00,-0.00,1.00,0.18,0.06,0.00,-5.50,12.50,42.00,53.650917,9.698374,4.40,0.09,12,3.760,0,-113,-27,5,3
299620,0.00,-0.01,1.00,0.00,0.00,0.00,-3.50,10.50,43.00,53.650917,9.698374,4.40,0.13,12,3.930,0,-108,-27,5,3
299720,0.00,-0.00,1.00,-0.24,0.00,0.06,-0.50,11.50,38.00,53.650917,9.698374,4.40,0.11,12,3.830,0,-92,-27,5,3
299820,0.00,-0.00,1.00,0.00,0.06,0.00,-0.50,11.50,38.00,53.650917,9.698374,4.40,0.13,12,3.850,0,-92,-27,5,3
299920,0.00,-0.01,1.00,0.06,0.00,0.00,-4.50,9.50,41.00,53.650917,9.698374,4.40,0.13,12,3.880,0,-115,-27,5,3
300020,0.00,-0.00,1.00,0.12,0.00,0.00,-4.50,9.50,41.00,53.650917,9.698374,4.40,0.17,12,3.890,0,-115,-27,5,3
300134,0.00,-0.00,1.00,0.12,0.06,0.00,-2.50,9.50,44.00,53.650917,9.698374,4.40,0.17,12,3.920,0,-104,-27,5,3
300234,0.00,-0.01,1.00,0.00,0.06,0.00,-0.50,7.50,43.00,53.650917,9.698374,4.40,0.17,12,3.920,0,-93,-27,5,3
300334,0.00,-0.00,1.00,0.06,0.06,0.06,-0.50,11.50,44.00,53.650917,9.698374,4.40,0.17,12,3.950,0,-92,-27,5,3
300434,0.00,-0.01,1.00,0.24,0.00,0.06,-2.50,11.50,42.00,53.650917,9.698374,4.40,0.17,12,3.880,0,-102,-27,5,3
300535,0.00,-0.00,1.00,0.12,0.06,0.12,-4.50,10.50,43.00,53.650917,9.698374,4.40,0.17,12,3.960,0,-112,-27,5,3
300635,0.00,-0.01,1.00,0.00,0.00,0.00,-4.50,12.50,46.00,53.650917,9.698374,4.40,0.17,12,3.900,0,-109,-27,5,3
300735,0.00,-0.00,1.00,-0.12,0.00,0.00,-2.50,11.50,39.00,53.650917,9.698374,4.40,0.17,12,3.960,0,-101,-28,5,3
300835,0.00,-0.01,1.00,-0.06,0.06,0.00,-2.50,10.50,42.00,53.650917,9.698374,4.40,0.15,12,3.880,0,-102,-27,5,3
300936,0.00,-0.00,1.00,0.06,0.06,0.00,-3.50,10.50,46.00,53.650917,9.698374,4.40,0.17,12,3.840,0,-108,-28,5,3
301036,0.00,-0.01,1.00,0.12,0.06,0.06,-0.50,13.50,44.00,53.650917,9.698374,4.40,0.17,12,3.940,0,-91,-28,5,3
301136,0.00,-0.00,1.00,0.12,0.06,0.06,-3.50,12.50,44.00,53.650917,9.698374,4.40,0.17,12,3.940,0,-105,-27,5,3
301236,0.00,-0.01,1.00,0.06,0.06,0.06,-3.50,12.50,46.00,53.650917,9.698374,4.40,0.17,12,3.760,0,-105,-28,5,3
301337,0.00,-0.00,1.00,0.06,0.06,0.00,-4.50,12.50,42.00,53.650917,9.698374,4.40,0.17,12,3.880,0,-109,-27,5,3
301437,0.00,-0.01,1.00,-0.06,0.00,0.06,-4.50,10.50,40.00,53.650917,9.698374,4.40,0.17,12,3.950,0,-113,-27,5,3
301537,0.00,-0.00,1.00,0.00,0.00,0.06,-1.50,13.50,40.00,53.650917,9.698374,4.40,0.17,12,3.960,0,-96,-27,5,3
301637,0.00,-0.00,1.00,0.12,0.00,0.06,-0.50,9.50,42.00,53.650917,9.698374,4.40,0.17,12,3.960,0,-92,-28,5,3
301737,0.00,-0.01,1.00,0.06,0.00,0.00,-2.50,11.50,41.00,53.650917,9.698374,4.40,0.17,12,3.900,0,-102,-28,5,3
301837,0.00,-0.01,1.00,0.00,0.06,0.06,-3.50,11.50,45.00,53.650917,9.698374,4.40,0.11,12,3.940,0,-106,-28,5,3
301937,0.00,-0.01,1.00,-0.06,0.12,-0.06,-2.50,9.50,43.00,53.650917,9.698374,4.40,0.19,12,3.850,0,-104,-27,5,3
302037,0.00,-0.00,1.00,0.06,0.06,0.00,-3.50,10.50,40.00,53.650917,9.698374,4.40,0.26,12,3.860,0,-108,-27,5,3
302137,0.00,-0.01,1.00,0.18,0.06,0.06,-5.50,10.50,40.00,53.650917,9.698374,4.40,0.28,12,3.940,0,-117,-27,5,3
302237,0.00,-0.01,1.00,0.00,0.00,0.06,-4.50,10.50,40.00,53.650917,9.698374,4.40,0.28,12,3.780,0,-113,-27,5,3
302337,0.00,-0.00,1.00,-0.18,0.06,0.00,-4.50,11.50,43.00,53.650917,9.698374,4.40,0.28,12,3.820,0,-111,-27,5,3
302437,0.00,-0.01,1.00,-0.24,0.00,0.06,-5.50,10.50,45.00,53.650917,9.698374,4.40,0.28,12,3.940,0,-118,-27,5,3
302537,0.00,-0.00,1.00,-0.43,0.06,0.00,-3.50,8.50,41.00,53.650917,9.698374,4.40,0.28,12,3.960,0,-112,-28,5,3
302637,0.00,-0.00,1.00,-0.12,0.06,0.00,-2.50,11.50,39.00,53.650917,9.698374,4.40,0.28,12,3.940,0,-102,-28,5,3
302737,0.00,-0.00,1.00,0.12,0.06,0.06,-0.50,10.50,39.00,53.650917,9.698374,4.40,0.28,12,3.930,0,-92,-27,5,3
302837,0.00,-0.01,1.00,-0.18,0.00,0.00,-2.50,9.50,40.00,53.650917,9.698374,4.40,0.22,12,3.950,0,-104,-28,5,3
302937,0.00,-0.00,1.00,-0.37,0.00,0.00,-2.50,11.50,42.00,53.650917,9.698374,4.40,0.04,12,3.980,0,-102,-28,5,3
303037,0.00,-0.00,1.00,0.00,0.00,0.06,-2.50,10.50,46.00,53.650917,9.698374,4.40,0.04,12,3.920,0,-103,-28,5,3
303137,-0.00,0.00,1.00,0.31,0.06,0.00,-1.50,11.50,42.00,53.650917,9.698374,4.40,0.04,12,3.830,0,-97,-27,5,3
303237,-0.00,-0.01,1.00,-0.24,0.00,0.00,-3.50,11.50,46.00,53.650917,9.698374,4.40,0.04,12,3.960,0,-108,-28,5,3
303337,-0.00,-0.00,1.00,0.18,-0.06,0.06,-4.50,12.50,45.00,53.650917,9.698374,4.40,0.04,12,3.950,0,-110,-27,5,3
303453,-0.00,0.00,1.00,0.55,0.00,0.18,-2.50,9.50,45.00,53.650917,9.698374,4.40,0.04,12,3.920,0,-104,-28,5,3
303553,0.00,-0.00,1.00,0.24,0.00,-0.12,-3.50,12.50,40.00,53.650917,9.698374,4.40,0.04,12,3.800,0,-105,-27,5,3
303653,0.01,-0.02,1.00,0.18,0.18,0.06,-3.50,11.50,42.00,53.650917,9.698374,4.40,0.04,12,3.831,0,-106,-27,5,3
303753,0.01,0.03,1.00,-0.98,0.12,-0.12,-2.50,12.50,45.00,53.650917,9.698374,4.40,0.04,12,3.96-1,0,-99,-27,5,3
303853,0.00,-0.02,1.00,-0.43,-0.12,-0.18,-2.50,11.50,43.00,53.650917,9.698374,4.40,0.04,12,3.881,0,-102,-27,5,3
303953,0.00,0.01,1.00,-0.73,0.00,0.12,-2.50,11.50,42.00,53.650917,9.698374,4.40,0.04,12,3.850,0,-101,-27,5,3
304053,0.00,-0.01,1.00,-1.04,-0.06,0.24,-2.50,12.50,42.00,53.650917,9.698374,4.40,0.04,12,3.900,0,-101,-27,5,3
304153,0.00,-0.00,1.00,-1.95,-0.12,0.12,-3.50,9.50,46.00,53.650917,9.698374,4.40,0.04,12,3.950,0,-109,-27,5,3
304253,0.00,0.02,0.99,-1.46,-0.06,0.18,-3.50,9.50,42.00,53.650917,9.698374,4.40,0.04,12,3.94-1,0,-107,-27,5,3
304353,-0.00,0.01,0.99,-0.67,0.00,0.06,-2.50,10.50,47.00,53.650917,9.698374,4.40,0.04,12,3.930,0,-103,-28,5,3
304453,-0.00,0.02,0.99,0.18,0.24,0.06,-2.50,11.50,41.00,53.650917,9.698374,4.40,0.04,12,3.920,0,-101,-27,5,3
304553,-0.00,-0.00,1.00,-0.06,0.06,-0.12,-1.50,9.50,46.00,53.650917,9.698374,4.40,0.04,12,3.790,0,-99,-28,5,3
304653,0.00,0.01,1.00,-0.73,0.12,0.18,-1.50,12.50,41.00,53.650917,9.698374,4.40,0.04,12,3.890,0,-96,-27,5,3
304753,0.01,-0.00,1.01,-0.73,-0.06,0.06,-2.50,11.50,41.00,53.650917,9.698374,4.40,0.04,12,3.890,0,-100,-27,5,3
304854,-0.00,0.03,1.00,0.79,0.12,0.06,-0.50,10.50,46.00,53.650917,9.698374,4.40,0.04,12,3.91-1,0,-93,-27,5,3
304954,-0.01,-0.01,1.01,1.10,-0.12,-0.18,-1.50,11.50,45.00,53.650917,9.698374,4.40,0.04,12,3.940,0,-99,-27,5,3
305054,-0.00,0.01,0.99,-0.06,0.00,0.06,-2.50,12.50,41.00,53.650917,9.698374,4.40,0.04,12,3.940,0,-101,-28,5,3
305154,-0.00,0.01,1.00,-0.61,0.00,-0.06,-2.50,12.50,37.00,53.650917,9.698374,4.40,0.04,12,3.960,0,-101,-28,5,3
305257,0.00,0.01,1.00,-0.37,0.00,0.24,-2.50,11.50,47.00,53.650917,9.698374,4.40,0.04,12,3.950,0,-101,-27,5,3
305357,0.00,0.01,1.00,-0.61,0.12,0.18,-2.50,9.50,45.00,53.650917,9.698374,4.40,0.04,12,3.950,0,-103,-27,5,3
305457,0.00,0.01,1.00,-0.85,0.00,-0.12,-1.50,11.50,42.00,53.650917,9.698374,4.40,0.04,12,3.980,0,-96,-27,5,3
305557,0.01,0.02,1.00,-0.85,0.06,0.00,-1.50,11.50,45.00,53.650917,9.698374,4.40,0.04,12,4.000,0,-95,-27,5,3
305663,0.00,0.01,1.00,-0.37,0.24,0.06,-4.50,10.50,44.00,53.650917,9.698374,4.40,0.04,12,3.910,0,-111,-28,5,3
305766,0.00,0.01,1.01,0.43,0.06,0.18,-1.50,12.50,47.00,53.650917,9.698374,4.40,0.04,12,3.940,0,-95,-27,5,3
305866,0.00,0.02,1.01,0.06,0.00,0.00,-2.50,11.50,42.00,53.650917,9.698374,4.40,0.04,12,3.91-1,0,-100,-28,5,3
305966,0.00,0.01,1.00,-0.24,0.00,-0.06,-2.50,12.50,43.00,53.650917,9.698374,4.40,0.04,12,3.990,0,-100,-27,5,3
306066,0.00,0.02,1.00,-0.43,0.00,-0.12,-2.50,11.50,43.00,53.650917,9.698374,4.40,0.04,12,3.970,0,-101,-27,5,3
306166,0.00,0.02,0.99,-0.37,0.12,-0.18,-1.50,10.50,44.00,53.650917,9.698374,4.40,0.04,12,3.970,0,-97,-27,5,3
306266,-0.00,0.01,1.00,-0.18,0.06,0.00,0.50,12.50,43.00,53.650917,9.698374,4.40,0.04,12,3.980,0,-87,-28,5,3
306367,-0.00,0.02,1.00,-0.31,-0.06,0.12,-5.50,12.50,43.00,53.650917,9.698374,4.40,0.04,12,3.96-1,0,-112,-27,5,3
306467,-0.00,0.02,1.00,0.49,0.12,0.12,-1.50,11.50,46.00,53.650917,9.698374,4.40,0.04,12,3.94-1,0,-97,-28,5,3
306581,0.00,0.01,1.00,0.79,0.06,0.12,-3.50,10.50,41.00,53.650917,9.698374,4.40,0.04,12,3.970,0,-107,-27,5,3
306692,-0.00,0.02,1.00,0.67,0.18,-0.12,-1.50,10.50,46.00,53.650917,9.698374,4.40,0.04,12,4.000,0,-97,-27,5,3
306806,-0.00,0.02,1.00,0.55,0.06,-0.06,-4.50,12.50,47.00,53.650921,9.698374,4.40,0.11,12,3.990,0,-108,-28,5,3
306906,0.00,0.01,1.00,-0.18,0.06,-0.18,-2.50,11.50,44.00,53.650921,9.698374,4.40,0.11,12,4.000,0,-101,-27,5,3
307006,-0.00,0.01,1.01,-0.61,0.00,0.00,-4.50,12.50,45.00,53.650921,9.698374,4.40,0.11,12,3.990,0,-109,-28,5,3
307106,0.00,0.02,0.99,0.06,0.12,0.00,-0.50,11.50,49.00,53.650921,9.698374,4.40,0.31,12,3.990,0,-91,-28,5,3
307206,0.00,0.01,1.00,0.55,0.12,0.12,-3.50,10.50,44.00,53.650921,9.698374,4.40,0.13,12,3.920,0,-107,-27,5,3
307306,0.00,0.01,1.00,0.85,0.12,0.00,-1.50,11.50,46.00,53.650921,9.698374,4.40,0.26,12,3.960,0,-96,-27,5,3
307406,0.00,0.01,1.01,-0.12,0.00,0.00,-1.50,10.50,42.00,53.650921,9.698374,4.40,0.33,12,3.950,0,-97,-27,5,3
307506,0.00,0.01,1.00,-0.79,0.00,-0.06,-0.50,12.50,43.00,53.650921,9.698374,4.40,0.20,12,3.990,0,-91,-27,5,3
307606,0.00,0.01,1.00,-0.55,0.00,-0.06,-4.50,9.50,40.00,53.650921,9.698374,4.40,0.06,12,3.940,0,-114,-27,5,3
307706,0.00,0.02,1.00,0.37,0.00,0.00,-1.50,11.50,45.00,53.650921,9.698374,4.40,0.07,12,3.940,0,-96,-27,5,3
307806,-0.00,0.01,1.00,0.85,0.06,0.00,-3.50,11.50,44.00,53.650921,9.698374,4.40,0.22,12,3.950,0,-106,-27,5,3
307906,0.00,0.01,1.00,0.43,0.12,0.00,-1.50,11.50,43.00,53.650921,9.698374,4.40,0.22,12,3.980,0,-97,-27,5,3
308006,0.00,0.01,1.00,-0.24,0.00,0.06,-4.50,11.50,43.00,53.650921,9.698374,4.40,0.22,12,3.960,0,-110,-27,5,3
308106,0.00,0.01,1.00,-0.49,0.00,0.00,-1.50,10.50,43.00,53.650921,9.698374,4.40,0.22,12,4.010,0,-97,-27,5,3
308206,0.00,0.01,1.00,0.00,0.06,0.00,-1.50,12.50,45.00,53.650921,9.698374,4.40,0.13,12,3.940,0,-96,-27,5,3
308306,0.00,0.01,1.00,0.49,0.00,0.12,-2.50,14.50,42.00,53.650921,9.698374,4.40,0.07,12,3.940,0,-99,-27,5,3
308406,0.00,0.01,1.00,0.43,0.06,0.06,-1.50,10.50,49.00,53.650921,9.698374,4.50,0.20,12,3.990,0,-97,-27,5,3
308506,0.00,0.01,1.00,0.06,0.00,-0.06,-1.50,10.50,42.00,53.650921,9.698374,4.40,0.17,12,3.960,0,-97,-27,5,3
308606,0.00,0.01,1.00,-0.12,0.06,-0.06,-1.50,7.50,40.00,53.650921,9.698374,4.50,0.26,12,3.790,0,-100,-27,5,3
308706,0.00,0.01,1.00,0.24,0.06,0.00,-1.50,10.50,46.00,53.650921,9.698374,4.50,0.17,12,3.950,0,-97,-27,5,3
308806,0.00,0.01,1.00,0.73,0.12,0.00,-1.50,10.50,46.00,53.650921,9.698374,4.50,0.17,12,3.940,0,-97,-27,5,3
308906,0.00,0.01,1.00,0.55,0.06,0.12,-1.50,10.50,42.00,53.650921,9.698374,4.50,0.17,12,3.950,0,-97,-27,5,3
309014,0.00,0.01,1.00,-0.49,-0.06,-0.06,-2.50,12.50,45.00,53.650921,9.698374,4.50,0.17,12,3.970,0,-100,-27,5,3
309114,0.00,0.01,1.00,-0.73,0.06,0.00,-1.50,11.50,45.00,53.650921,9.698374,4.50,0.17,12,3.910,0,-96,-27,5,3
309214,0.00,0.01,1.00,-0.18,0.00,0.00,-1.50,12.50,44.00,53.650921,9.698374,4.50,0.17,12,3.950,0,-96,-27,5,3
309314,0.00,0.01,1.00,0.49,0.06,0.00,-3.50,11.50,46.00,53.650921,9.698374,4.50,0.17,12,3.930,0,-106,-27,5,3
309414,0.00,0.01,1.00,0.61,0.00,0.18,-0.50,12.50,42.00,53.650921,9.698374,4.50,0.19,12,3.970,0,-91,-27,5,3
309514,0.01,0.01,1.00,-0.06,0.00,0.00,-3.50,13.50,45.00,53.650921,9.698374,4.50,0.07,12,3.840,0,-102,-27,5,3
309614,0.01,0.01,1.00,0.06,0.06,0.12,-2.50,10.50,44.00,53.650921,9.698374,4.40,0.20,12,3.910,0,-101,-27,5,3
309714,0.00,0.01,1.00,-0.24,-0.06,0.00,-5.50,9.50,44.00,53.650921,9.698374,4.40,0.22,12,3.880,0,-118,-27,5,3
309815,0.01,0.01,1.00,0.55,0.06,-0.12,-2.50,11.50,43.00,53.650921,9.698374,4.40,0.13,12,3.880,0,-100,-27,5,3
309915,0.00,0.00,1.00,0.92,0.06,-0.12,-4.50,11.50,46.00,53.650921,9.698374,4.40,0.13,12,3.960,0,-110,-27,5,3
310015,0.00,-0.00,0.99,-0.06,-0.06,-0.06,-3.50,11.50,43.00,53.650921,9.698374,4.40,0.13,12,3.950,0,-106,-27,5,3
310119,0.00,0.02,0.99,-0.18,-0.06,0.06,-1.50,8.50,43.00,53.650921,9.698374,4.40,0.13,12,3.940,0,-98,-27,5,3
310219,-0.00,-0.00,1.00,0.12,0.18,-0.06,-3.50,12.50,42.00,53.650921,9.698374,4.40,0.13,12,3.940,0,-105,-27,5,3
310319,0.00,0.01,0.99,1.53,0.18,0.24,-2.50,11.50,44.00,53.650921,9.698374,4.40,0.13,12,3.940,0,-101,-27,5,3
310419,0.00,0.01,0.99,0.73,0.06,-0.06,-3.50,11.50,46.00,53.650921,9.698374,4.40,0.19,12,3.890,0,-105,-27,5,3
310519,0.00,-0.00,0.99,0.12,0.18,-0.06,-1.50,10.50,44.00,53.650921,9.698374,4.40,0.06,12,3.930,0,-98,-27,5,3
310619,-0.00,-0.00,1.01,-0.55,0.00,0.06,-2.50,11.50,39.00,53.650921,9.698374,4.40,0.07,12,3.930,0,-102,-27,5,3
310719,0.00,0.00,1.00,0.37,0.06,-0.06,-1.50,10.50,45.00,53.650921,9.698374,4.40,0.24,12,3.940,0,-97,-27,5,3
310819,0.00,-0.01,1.00,0.18,-0.06,0.06,-1.50,13.50,44.00,53.650921,9.698374,4.40,0.13,12,3.940,0,-96,-27,5,3
310919,-0.00,0.01,1.00,0.79,0.12,0.12,-3.50,13.50,46.00,53.650921,9.698374,4.40,0.13,12,3.930,0,-104,-27,5,3
311019,0.00,-0.01,0.99,0.67,-0.06,0.18,-2.50,12.50,43.00,53.650921,9.698374,4.40,0.13,12,3.850,0,-101,-27,5,3
311119,-0.00,0.00,1.00,-0.06,0.06,0.12,-2.50,12.50,42.00,53.650921,9.698374,4.40,0.07,12,3.980,0,-101,-27,5,3
311219,0.00,-0.00,1.00,-0.49,0.00,0.00,-2.50,12.50,41.00,53.650921,9.698374,4.40,0.11,12,3.950,0,-101,-27,5,3
311319,0.00,0.00,1.00,-0.43,0.00,-0.18,-4.50,11.50,48.00,53.650921,9.698374,4.40,0.06,12,3.960,0,-110,-28,5,3
311419,0.00,-0.01,0.99,-0.31,0.06,0.18,-4.50,9.50,39.00,53.650921,9.698374,4.40,0.06,12,3.940,0,-116,-27,5,3
311519,-0.00,0.01,1.00,-0.61,0.00,0.06,-5.50,11.50,43.00,53.650921,9.698374,4.40,0.07,12,3.870,0,-114,-27,5,3
311619,-0.00,0.00,1.00,-0.49,0.12,0.12,-1.50,11.50,46.00,53.650921,9.698374,4.40,0.04,12,3.930,0,-97,-27,5,3
311719,-0.00,-0.00,1.00,-1.71,0.00,0.06,-3.50,10.50,39.00,53.650921,9.698374,4.40,0.13,12,3.960,0,-108,-27,5,3
311819,0.00,0.02,0.99,-0.79,-0.12,-0.12,-0.50,10.50,38.00,53.650921,9.698374,4.40,0.26,12,3.90-1,0,-92,-27,5,3
311920,0.00,-0.00,0.99,-0.06,0.12,0.06,-3.50,12.50,41.00,53.650921,9.698374,4.40,0.26,12,3.920,0,-105,-27,5,3
312020,0.00,0.01,1.00,0.55,0.18,0.18,-2.50,9.50,44.00,53.650921,9.698374,4.40,0.26,12,3.920,0,-103,-27,5,3
312120,0.00,0.01,1.00,0.73,0.24,0.12,-0.50,11.50,46.00,53.650921,9.698374,4.40,0.26,12,3.940,0,-92,-27,5,3
312220,0.00,-0.01,1.00,0.06,0.00,0.12,-4.50,12.50,42.00,53.650921,9.698374,4.40,0.26,12,3.940,0,-109,-27,5,3
312338,0.00,0.01,1.00,-0.37,0.00,0.00,-4.50,9.50,36.00,53.650921,9.698374,4.40,0.09,12,3.840,0,-113,-27,5,3
312438,0.00,-0.01,1.01,-0.12,0.12,0.06,-3.50,12.50,43.00,53.650921,9.698374,4.40,0.09,12,3.920,0,-105,-27,5,3
312538,-0.00,0.01,1.01,0.49,0.00,0.00,-2.50,10.50,42.00,53.650921,9.698374,4.40,0.09,12,3.740,0,-103,-28,5,3
312638,-0.00,0.01,1.00,0.85,-0.06,-0.24,-1.50,10.50,43.00,53.650921,9.698374,4.40,0.09,12,3.850,0,-98,-27,5,3
312742,-0.00,-0.02,1.00,1.22,0.00,-0.43,-2.50,14.50,43.00,53.650921,9.698374,4.40,0.09,12,3.940,0,-100,-27,5,3
312842,-0.00,-0.00,1.00,0.31,0.00,-0.12,-1.50,12.50,47.00,53.650921,9.698374,4.40,0.06,12,3.950,0,-97,-27,5,3
312942,0.01,0.00,0.99,0.61,0.12,-0.31,-4.50,9.50,43.00,53.650921,9.698374,4.40,0.15,12,3.960,0,-113,-27,5,3
313042,0.01,-0.01,0.99,0.79,0.18,0.18,-2.50,12.50,44.00,53.650921,9.698374,4.40,0.02,12,3.820,0,-99,-27,5,3
313142,0.01,0.01,1.00,0.12,0.00,0.31,-0.50,10.50,39.00,53.650921,9.698374,4.40,0.02,12,3.850,0,-91,-27,5,3
313242,-0.00,-0.01,1.00,-0.06,0.18,0.00,-0.50,12.50,48.00,53.650921,9.698374,4.40,0.02,12,3.900,0,-92,-27,5,3
313342,-0.00,-0.00,1.00,0.61,0.00,-0.12,-2.50,10.50,41.00,53.650921,9.698374,4.40,0.02,12,3.810,0,-104,-27,5,3
313442,-0.01,0.00,1.01,1.46,0.00,-0.18,-3.50,11.50,43.00,53.650921,9.698374,4.40,0.02,12,3.920,0,-108,-27,5,3
313542,-0.00,-0.01,1.00,0.85,0.00,-0.06,-4.50,8.50,44.00,53.650921,9.698374,4.40,0.02,12,3.950,0,-119,-27,5,3
313643,0.00,0.01,0.99,0.24,0.06,0.12,0.50,11.50,40.00,53.650921,9.698374,4.40,0.02,12,3.960,0,-87,-27,5,3
313743,0.00,-0.01,0.99,0.18,0.06,-0.06,-5.50,13.50,44.00,53.650921,9.698374,4.40,0.02,12,3.900,0,-112,-27,5,3
313844,0.00,-0.01,1.00,-1.04,0.06,0.00,-2.50,11.50,44.00,53.650921,9.698374,4.40,0.04,12,3.820,0,-101,-27,5,3
313944,-0.00,0.01,1.01,-0.12,-0.06,-0.06,-2.50,12.50,42.00,53.650921,9.698374,4.40,0.15,12,3.940,0,-101,-27,5,3
314044,-0.00,-0.01,1.00,1.22,0.06,0.12,-3.50,12.50,48.00,53.650921,9.698374,4.40,0.24,12,3.950,0,-106,-27,5,3
314144,-0.00,-0.01,1.01,1.28,0.24,-0.18,-4.50,11.50,41.00,53.650921,9.698374,4.50,0.09,12,3.900,0,-112,-27,5,3
314246,0.01,-0.02,0.99,1.04,0.18,-0.18,-5.50,11.50,43.00,53.650921,9.698374,4.50,0.09,12,3.960,0,-114,-27,5,3
314346,-0.00,-0.02,1.00,0.61,-0.06,-0.06,-6.50,11.50,45.00,53.650921,9.698374,4.50,0.09,12,3.941,0,-122,-27,5,3
314446,-0.01,0.00,1.00,1.28,-0.18,-0.06,-9.50,12.50,42.00,53.650921,9.698374,4.50,0.09,12,3.860,0,-127,-27,5,3
314546,-0.01,-0.03,0.99,0.43,0.00,0.00,-3.50,10.50,44.00,53.650921,9.698374,4.50,0.09,12,3.851,0,-113,-27,5,3
314646,0.00,-0.00,0.99,-0.06,-0.06,0.12,-2.50,9.50,43.00,53.650921,9.698374,4.50,0.09,12,3.940,0,-103,-27,5,3
314751,-0.00,-0.00,1.00,1.22,0.06,0.12,-3.50,8.50,42.00,53.650921,9.698374,4.50,0.09,12,3.880,0,-113,-27,5,3
314851,0.00,-0.03,1.00,2.56,0.37,-0.06,-3.50,8.50,42.00,53.650921,9.698374,4.50,0.09,12,3.901,0,-114,-27,5,3
314952,0.03,-0.04,1.04,-4.52,-0.31,-0.49,-4.50,12.50,46.00,53.650921,9.698374,4.50,0.07,12,3.962,1,-106,-27,5,3
315052,-0.01,-0.02,1.01,-15.99,-1.83,-0.31,-4.50,10.50,40.00,53.650921,9.698374,4.50,0.07,12,3.931,0,-116,-27,5,3
315152,-0.01,0.05,1.01,-11.60,-0.31,1.22,-2.50,13.50,44.00,53.650921,9.698374,4.50,0.07,12,3.89-3,0,-100,-27,5,3
315252,0.03,0.06,1.08,-1.65,0.49,-0.43,-0.50,11.50,42.00,53.650921,9.698374,4.50,0.07,12,3.92-3,1,-87,-27,5,3
315352,0.03,0.08,1.04,-8.61,0.85,0.79,-0.50,11.50,42.00,53.650921,9.698374,4.50,0.07,12,3.96-4,1,-86,-27,5,3
315452,-0.02,0.14,1.06,-18.07,-1.04,-0.31,-1.50,10.50,44.00,53.650921,9.698374,4.50,0.07,12,3.96-7,-1,-98,-27,5,3
315552,-0.10,0.17,1.15,-7.26,-0.98,-4.58,-1.50,11.50,40.00,53.650921,9.698374,4.50,0.07,12,3.96-8,-4,-106,-27,5,3
315673,0.02,0.02,1.06,5.98,0.12,-5.25,1.50,10.50,42.00,53.650921,9.698374,4.50,0.07,12,3.940,1,-77,-27,5,3
315776,-0.03,0.04,0.97,-13.24,-1.83,-3.23,1.50,10.50,43.00,53.650921,9.698374,4.50,0.07,12,3.88-2,-1,-89,-27,5,3
315876,-0.03,0.12,0.97,-15.20,-3.36,-6.96,4.50,11.50,43.00,53.650921,9.698374,4.50,0.07,12,3.85-6,-1,-79,-27,5,3
315976,0.02,0.05,1.00,-3.72,-4.21,-6.41,2.50,12.50,44.00,53.650921,9.698374,4.50,0.07,12,3.73-2,1,-76,-27,5,3
316076,0.02,0.04,0.95,1.34,-5.74,-4.27,4.50,14.50,46.00,53.650921,9.698374,4.50,0.07,12,3.95-2,1,-71,-27,5,3
316176,-0.03,0.09,0.95,-1.59,-7.32,-4.58,4.50,15.50,42.00,53.650921,9.698374,4.50,0.07,12,3.89-5,-1,-80,-27,5,3
316276,-0.02,0.14,0.98,0.43,-8.24,-2.99,7.50,12.50,42.00,53.650921,9.698374,4.50,0.07,12,3.95-8,-1,-70,-27,5,3
316376,-0.03,0.11,0.95,1.77,-8.97,-2.26,3.50,15.50,43.00,53.650921,9.698374,4.50,0.07,12,3.95-6,-1,-83,-27,5,3
316476,-0.04,0.20,0.98,2.38,-9.40,-3.36,3.50,14.50,46.00,53.650921,9.698374,4.50,0.07,12,3.96-11,-2,-85,-27,5,3
316576,-0.07,0.18,0.99,6.29,-9.95,-4.70,4.50,16.50,42.00,53.650921,9.698374,4.50,0.07,12,3.94-10,-3,-85,-27,5,3
316682,-0.08,0.13,1.00,4.70,-9.77,-3.54,2.50,17.50,44.00,53.650921,9.698374,4.50,0.07,12,3.98-7,-4,-92,-27,5,3
316843,-0.16,0.09,0.96,-2.87,-8.97,-3.48,3.50,19.50,41.00,53.650921,9.698374,4.50,0.07,12,3.94-5,-9,-98,-27,5,3
316943,-0.22,0.09,0.99,-1.59,-7.51,-2.01,5.50,16.50,42.00,53.650921,9.698374,4.90,0.07,12,3.95-5,-12,-100,-27,5,3
317045,-0.17,0.10,0.96,4.21,-5.68,-0.73,3.50,19.50,44.00,53.650921,9.698374,4.90,0.07,12,3.96-5,-10,-100,-27,5,3
317145,-0.16,0.05,0.99,7.81,-4.64,-0.37,5.50,19.50,39.00,53.650921,9.698374,4.90,0.07,12,3.84-2,-8,-91,-27,5,3
317245,-0.17,0.09,0.98,4.88,-3.97,-0.37,2.50,19.50,41.00,53.650921,9.698374,4.90,0.07,12,3.93-5,-9,-100,-27,5,3
317345,-0.21,0.11,0.97,3.72,-2.75,-1.40,2.50,20.50,39.00,53.650921,9.698374,4.90,0.07,12,3.86-6,-12,-103,-27,5,3
317445,-0.19,0.05,0.98,5.92,-1.40,-1.04,2.50,20.50,39.00,53.650921,9.698374,4.90,0.07,12,3.95-2,-11,-102,-27,5,3
317545,-0.17,0.02,0.95,5.86,0.12,-0.12,2.50,18.50,40.00,53.650921,9.698374,4.90,0.07,12,4.00-1,-10,-103,-27,5,3
317645,-0.20,0.04,0.99,4.15,1.40,0.06,2.50,23.50,39.00,53.650921,9.698374,4.90,0.07,12,3.94-2,-11,-102,-27,5,3
317745,-0.20,0.06,0.97,3.66,2.56,1.04,1.50,20.50,44.00,53.650921,9.698374,4.90,0.07,12,3.95-3,-11,-107,-27,5,3
317845,-0.19,0.03,0.96,3.72,3.78,2.50,1.50,20.50,44.00,53.650921,9.698374,4.90,0.09,12,3.92-1,-11,-107,-27,5,3
317945,-0.17,-0.00,0.94,1.10,4.76,3.05,1.50,20.50,43.00,53.650921,9.698374,4.90,0.13,12,3.940,-10,-107,-27,5,3
318045,-0.18,0.02,0.94,0.43,5.68,3.42,1.50,20.50,43.00,53.650921,9.698374,4.90,0.13,12,3.99-1,-10,-106,-27,5,3
318145,-0.15,0.02,0.95,0.92,6.29,3.36,0.50,18.50,43.00,53.650921,9.698374,4.90,0.13,12,3.930,-9,-108,-27,5,3
318245,-0.16,-0.02,0.98,-0.73,6.71,2.99,1.50,17.50,41.00,53.650921,9.698374,4.90,0.13,12,3.951,-9,-107,-27,5,3
318346,-0.15,0.02,1.00,-1.71,7.02,3.66,-2.50,18.50,45.00,53.650921,9.698374,4.90,0.13,12,3.95-1,-8,-114,-27,5,3
318446,-0.11,0.04,1.01,0.37,6.84,2.14,1.50,16.50,44.00,53.650921,9.698374,4.90,0.13,12,3.95-2,-6,-100,-27,5,3
318546,-0.09,0.02,1.04,0.37,6.71,1.65,1.50,16.50,44.00,53.650921,9.698374,4.90,0.13,12,3.95-1,-4,-97,-27,5,3
318646,-0.06,0.00,1.01,-1.04,5.86,0.49,-1.50,14.50,43.00,53.650921,9.698374,4.90,0.13,12,4.020,-3,-105,-27,5,3
318747,-0.07,0.07,0.99,1.53,5.07,-1.04,-1.50,15.50,42.00,53.650921,9.698374,4.90,0.13,12,3.95-3,-4,-103,-27,5,3
318856,-0.05,0.00,1.04,4.88,3.48,-1.46,-0.50,16.50,41.00,53.650921,9.698373,4.60,0.56,12,3.950,-2,-98,-27,5,3
318961,-0.06,0.01,1.00,0.92,2.44,0.31,-1.50,16.50,41.00,53.650921,9.698374,4.60,0.56,12,3.970,-3,-102,-27,5,3
319061,-0.05,0.02,1.03,-0.55,1.16,0.24,-1.50,13.50,48.00,53.650921,9.698374,4.60,0.56,12,3.95-1,-2,-104,-27,5,3
319161,-0.05,0.01,1.03,0.79,-0.06,0.00,1.50,16.50,42.00,53.650921,9.698374,4.60,0.56,12,3.980,-2,-92,-27,5,3
319261,-0.07,0.00,1.01,3.91,-0.67,0.55,-0.50,15.50,46.00,53.650921,9.698374,4.60,0.56,12,3.980,-3,-102,-27,5,3
319361,-0.09,0.03,1.06,2.93,-1.59,0.37,-1.50,12.50,43.00,53.650921,9.698374,4.60,0.56,12,3.96-1,-4,-110,-27,5,3
319461,-0.07,0.01,1.00,3.48,-2.20,0.18,-1.50,18.50,45.00,53.650921,9.698374,4.60,0.56,12,3.930,-4,-103,-27,5,3
319561,-0.08,-0.01,1.03,1.65,-2.38,1.22,-1.50,15.50,44.00,53.650921,9.698374,4.60,0.56,12,3.910,-4,-107,-27,5,3
319661,-0.09,-0.01,1.06,0.79,-2.93,1.34,-2.50,14.50,39.00,53.650921,9.698374,4.60,0.56,12,4.010,-5,-112,-27,5,3
319761,-0.09,-0.02,1.14,-2.81,4.64,2.56,-1.50,17.50,45.00,53.650921,9.698374,4.60,0.56,12,3.961,-4,-106,-27,5,3
319861,-0.11,0.02,0.95,1.28,6.53,-0.06,-2.50,13.50,44.00,53.650921,9.698374,4.60,0.56,12,3.95-1,-6,-117,-27,5,3
319961,-0.07,-0.09,1.07,-0.79,9.77,-0.67,-1.50,14.50,45.00,53.650921,9.698374,4.60,0.56,12,3.984,-3,-112,-27,5,3
320063,-0.06,0.02,0.93,-5.31,22.64,5.25,-1.50,12.50,42.00,53.650921,9.698374,4.60,0.56,12,3.93-1,-3,-107,-27,5,3
320163,0.12,0.13,0.65,-19.59,-9.83,0.73,-1.50,13.50,45.00,53.650921,9.698374,4.60,0.56,12,3.94-11,10,-72,-27,5,3
320263,-0.06,0.03,1.19,11.54,0.85,-1.28,-1.50,13.50,40.00,53.650921,9.698374,4.60,0.56,12,3.96-1,-2,-103,-27,5,3
320363,0.05,-0.07,0.97,1.28,-6.47,-4.15,-3.50,12.50,42.00,53.650921,9.698374,4.60,0.56,12,3.943,3,-97,-27,5,3
320463,-0.00,-0.01,0.84,-5.31,5.00,6.29,-1.50,11.50,46.00,53.650921,9.698374,4.60,0.56,12,3.980,0,-98,-27,5,3
320563,0.06,-0.06,1.09,-0.18,3.54,2.81,-3.50,11.50,46.00,53.650921,9.698374,4.60,0.56,12,3.973,3,-95,-27,5,3
320665,-0.00,-0.02,1.13,1.89,-0.85,-0.43,-2.50,11.50,42.00,53.650921,9.698374,4.60,0.56,12,3.940,0,-102,-27,5,3
320768,-0.02,-0.08,1.08,-6.16,-0.61,-1.65,-4.50,10.50,45.00,53.650921,9.698374,4.60,0.56,12,3.924,-1,-127,-28,5,3
320888,-0.02,-0.00,0.99,-11.47,-0.73,-0.37,-1.50,8.50,45.00,53.650921,9.698374,4.60,0.56,12,3.900,0,-105,-27,5,3
320988,-0.01,0.02,1.02,-6.71,0.49,0.55,-0.50,12.50,46.00,53.650921,9.698374,4.60,0.56,12,3.910,0,-93,-27,5,3
321088,0.00,0.04,0.99,4.21,0.12,0.18,0.50,13.50,45.00,53.650921,9.698374,4.60,0.56,12,3.88-2,0,-87,-27,5,3
321188,-0.01,-0.01,0.99,8.61,0.31,-0.31,-0.50,12.50,43.00,53.650921,9.698374,4.60,0.56,12,3.920,0,-95,-27,5,3
321288,-0.00,-0.03,1.01,5.00,0.24,0.24,-0.50,10.50,41.00,53.650921,9.698374,4.60,0.56,12,3.851,0,-93,-27,5,3
321388,-0.00,-0.02,1.01,-2.62,-0.18,-0.24,-1.50,14.50,42.00,53.650921,9.698374,4.60,0.56,12,3.961,0,-96,-27,5,3
321488,-0.00,-0.01,0.99,-6.77,-0.55,0.00,-1.50,10.50,45.00,53.650921,9.698374,4.60,0.56,12,3.960,0,-99,-27,5,3
321588,-0.01,0.00,0.99,-4.88,0.06,0.43,-1.50,11.50,43.00,53.650921,9.698374,4.60,0.56,12,3.920,0,-98,-27,5,3
321688,-0.01,0.03,0.99,1.04,0.24,0.12,-1.50,11.50,45.00,53.650921,9.698374,4.60,0.56,12,3.84-1,0,-97,-27,5,3
321788,-0.01,-0.01,1.00,5.31,0.37,0.06,-1.50,12.50,41.00,53.650921,9.698374,4.60,0.56,12,3.940,0,-98,-27,5,3
321888,-0.00,-0.01,1.00,4.58,0.06,0.00,-2.50,12.50,43.00,53.650921,9.698374,4.60,0.56,12,4.000,0,-102,-27,5,3
321988,-0.00,-0.02,1.01,-0.79,-0.12,0.00,-2.50,12.50,45.00,53.650921,9.698374,4.60,0.56,12,3.941,0,-103,-27,5,3
322090,-0.01,-0.01,1.00,-4.33,-0.31,0.00,-0.50,10.50,36.00,53.650921,9.698374,4.60,0.56,12,3.870,0,-93,-27,5,3
322190,-0.01,0.00,1.00,-3.17,-0.18,0.00,-0.50,9.50,41.00,53.650921,9.698374,4.60,0.56,12,3.950,0,-94,-27,5,3
322326,-0.01,0.00,1.00,2.56,0.18,0.06,-1.50,12.50,42.00,53.650921,9.698374,4.60,0.56,12,3.930,0,-97,-27,5,3
322426,-0.01,-0.01,1.00,3.72,0.31,-0.06,-1.50,12.50,42.00,53.650921,9.698373,4.30,0.06,12,3.950,0,-98,-27,5,3
322526,-0.00,-0.02,1.00,1.46,0.12,0.00,-2.50,10.50,47.00,53.650921,9.698373,4.40,0.06,12,3.951,0,-105,-27,5,3
322626,-0.00,-0.01,1.00,-2.01,-0.06,-0.06,-2.50,12.50,46.00,53.650921,9.698373,4.30,0.28,12,3.870,0,-102,-27,5,3
322726,-0.00,-0.00,1.00,-2.93,-0.12,0.06,-0.50,8.50,37.00,53.650921,9.698373,4.30,0.31,12,3.920,0,-94,-27,5,3
322826,-0.01,0.01,1.00,-0.85,0.00,0.06,-0.50,8.50,37.00,53.650921,9.698373,4.40,0.46,12,3.890,0,-94,-27,5,3
322926,-0.01,0.00,1.00,1.95,0.12,0.00,-1.50,14.50,44.00,53.650921,9.698373,4.40,0.46,12,3.970,0,-96,-27,5,3
323027,-0.01,-0.01,1.00,2.56,0.24,0.00,-1.50,11.50,42.00,53.650921,9.698374,4.40,0.56,12,3.880,0,-98,-27,5,3
323127,-0.00,-0.01,1.00,0.55,0.00,0.00,-0.50,11.50,45.00,53.650921,9.698374,4.40,0.44,12,4.000,0,-93,-27,5,3
323227,0.00,-0.02,1.00,-0.85,0.06,0.67,-0.50,12.50,42.00,53.650921,9.698374,4.40,0.44,12,3.851,0,-92,-27,5,3
323327,-0.01,0.00,0.99,-0.31,-0.37,0.43,-2.50,13.50,47.00,53.650921,9.698373,4.40,0.31,12,3.880,0,-103,-27,5,3
323427,0.00,-0.02,0.98,-0.55,0.12,-0.55,-1.50,10.50,44.00,53.650921,9.698374,4.40,0.19,12,3.741,0,-98,-27,5,3
323528,0.01,-0.00,1.00,-0.06,-0.06,0.37,-2.50,7.50,40.00,53.650921,9.698374,4.40,0.15,12,3.940,0,-106,-27,5,3
323628,-0.01,-0.00,0.97,0.55,-0.12,0.37,-2.50,13.50,45.00,53.650921,9.698374,4.40,0.31,12,3.940,0,-101,-27,5,3
323728,-0.01,-0.00,0.99,-0.06,0.18,0.00,-4.50,10.50,43.00,53.650921,9.698373,4.40,0.30,12,3.890,0,-115,-27,5,3
323828,-0.01,0.01,0.99,-0.06,0.49,-0.06,-2.50,12.50,42.00,53.650921,9.698374,4.40,0.41,12,3.940,0,-102,-27,5,3
323928,0.00,-0.02,1.02,-0.31,0.31,0.00,-2.50,13.50,39.00,53.650921,9.698374,4.40,0.41,12,3.941,0,-100,-28,5,3
324028,-0.01,0.00,1.01,0.79,0.06,0.49,-1.50,12.50,39.00,53.650921,9.698374,4.40,0.54,12,3.830,0,-98,-27,5,3
324128,-0.01,-0.01,1.02,-0.31,0.00,-0.12,0.50,8.50,45.00,53.650921,9.698374,4.40,0.09,12,3.810,0,-91,-27,5,3
324228,-0.00,0.00,1.01,-1.34,0.12,0.12,-2.50,12.50,46.00,53.650921,9.698374,4.40,0.44,12,3.970,0,-102,-27,5,3
324328,-0.01,-0.02,1.02,-0.61,0.00,-0.18,-0.50,9.50,42.00,53.650921,9.698374,4.40,0.30,12,3.940,0,-94,-27,5,3
324428,-0.01,0.00,1.01,1.34,0.00,0.12,-0.50,11.50,44.00,53.650921,9.698374,4.40,0.15,12,3.970,0,-93,-27,5,3
324528,-0.01,-0.02,1.01,2.01,0.06,0.18,-1.50,11.50,41.00,53.650921,9.698374,4.40,0.31,12,3.941,0,-99,-27,5,3
324630,-0.01,-0.01,0.99,1.71,-0.06,0.00,-2.50,13.50,40.00,53.650921,9.698374,4.40,0.22,12,3.930,0,-102,-27,5,3
324730,-0.01,-0.02,1.00,-1.04,0.00,-0.37,-5.50,12.50,43.00,53.650921,9.698374,4.40,0.20,12,3.790,0,-115,-27,5,3
324830,0.01,-0.00,0.99,-1.59,-0.12,0.00,-3.50,11.50,45.00,53.650921,9.698374,4.40,0.24,12,3.870,0,-105,-27,5,3
324938,0.00,-0.00,1.00,-0.06,-0.06,0.12,-2.50,11.50,43.00,53.650921,9.698374,4.40,0.24,12,3.840,0,-101,-27,5,3
325038,-0.01,-0.02,0.99,-0.79,-0.12,0.06,-0.50,10.50,42.00,53.650921,9.698374,4.40,0.24,12,3.930,0,-94,-27,5,3
325138,-0.00,0.00,0.98,1.46,0.12,0.00,-2.50,12.50,47.00,53.650921,9.698374,4.40,0.24,12,3.850,0,-102,-27,5,3
325238,-0.01,-0.01,0.99,1.83,0.06,0.00,-2.50,11.50,45.00,53.650921,9.698374,4.40,0.24,12,3.960,0,-104,-27,5,3
325338,-0.01,-0.01,1.00,-0.92,0.37,-0.31,-0.50,8.50,42.00,53.650921,9.698374,4.30,0.33,12,3.880,0,-97,-27,5,3
325438,-0.01,-0.01,0.99,1.04,0.37,0.00,-3.50,11.50,44.00,53.650921,9.698373,4.30,0.30,12,3.960,0,-108,-27,5,3
325541,0.00,-0.02,1.01,-0.12,0.18,0.31,-2.50,12.50,42.00,53.650921,9.698374,4.30,0.30,12,3.781,0,-101,-27,5,3
325643,-0.00,-0.01,1.00,-3.91,-0.18,0.24,-1.50,12.50,43.00,53.650921,9.698373,4.40,0.26,12,3.950,0,-97,-27,5,3
325743,-0.01,-0.00,1.00,-3.85,-0.12,0.12,-2.50,10.50,42.00,53.650921,9.698373,4.40,0.26,12,3.990,0,-104,-27,5,3
325843,-0.01,0.02,1.00,-0.18,0.12,0.00,0.50,10.50,44.00,53.650921,9.698373,4.40,0.04,12,3.820,0,-89,-27,5,3
325944,-0.01,-0.00,1.00,3.36,0.31,-0.12,-2.50,9.50,42.00,53.650921,9.698373,4.40,0.04,12,3.880,0,-106,-27,5,3
326044,-0.00,-0.01,1.01,2.69,0.24,0.00,-0.50,11.50,44.00,53.650921,9.698373,4.30,0.04,12,3.910,0,-93,-27,5,3
326144,-0.00,-0.02,1.01,-0.61,0.00,0.06,-0.50,11.50,45.00,53.650921,9.698373,4.30,0.04,12,3.900,0,-93,-27,5,3
326244,-0.00,-0.00,1.00,-2.75,-0.18,-0.06,-2.50,12.50,48.00,53.650921,9.698373,4.30,0.04,12,3.910,0,-102,-27,5,3
326344,-0.01,-0.00,1.00,-2.32,-0.06,0.06,-0.50,12.50,45.00,53.650921,9.698373,4.40,0.04,12,3.870,0,-93,-27,5,3
326444,-0.01,0.01,1.00,0.61,0.06,0.06,-1.50,10.50,46.00,53.650921,9.698373,4.40,0.04,12,3.940,0,-99,-27,5,3
326544,-0.01,-0.01,1.00,2.56,0.18,0.06,2.50,11.50,43.00,53.650921,9.698373,4.40,0.04,12,3.910,0,-78,-27,5,3
326644,-0.00,-0.01,1.00,1.34,0.06,0.00,-2.50,11.50,45.00,53.650921,9.698373,4.40,0.04,12,3.940,0,-103,-27,5,3
326860,-0.01,-0.00,1.00,-2.01,-0.06,0.06,-1.50,12.50,46.00,53.650921,9.698373,4.40,0.04,12,3.780,0,-98,-27,5,3
326970,-0.00,0.00,1.00,-0.55,-0.06,0.12,-1.50,14.50,43.00,53.650921,9.698373,4.40,0.04,12,3.820,0,-96,-27,5,3
327070,-0.01,0.00,1.00,1.04,0.12,0.06,-0.50,11.50,45.00,53.650921,9.698373,4.40,0.04,12,3.930,0,-93,-27,5,3
327170,-0.00,-0.01,1.00,1.46,0.06,0.06,-1.50,11.50,40.00,53.650921,9.698373,4.40,0.04,12,3.830,0,-98,-27,5,3
327270,-0.01,-0.01,1.00,0.31,0.12,0.00,-2.50,12.50,46.00,53.650921,9.698373,4.40,0.04,12,3.930,0,-102,-27,5,3
327370,-0.00,-0.01,1.00,-1.16,0.00,-0.06,-2.50,10.50,43.00,53.650921,9.698373,4.40,0.04,12,3.950,0,-104,-27,5,3
327470,-0.01,-0.00,1.00,-1.04,0.00,0.00,-0.50,11.50,44.00,53.650921,9.698373,4.40,0.04,12,3.940,0,-93,-27,5,3
327570,-0.00,-0.00,1.00,0.00,0.00,0.00,-1.50,10.50,41.00,53.650921,9.698373,4.40,0.04,12,3.820,0,-99,-27,5,3
327670,-0.01,-0.00,1.00,0.92,0.06,0.06,-1.50,11.50,40.00,53.650921,9.698373,4.40,0.04,12,3.860,0,-98,-27,5,3
327770,-0.01,-0.01,1.00,0.67,0.12,0.12,-1.50,13.50,47.00,53.650921,9.698373,4.40,0.04,12,3.920,0,-97,-27,5,3
327906,-0.01,-0.01,1.00,-0.67,0.00,0.00,-2.50,12.50,37.00,53.650921,9.698374,4.30,0.19,12,3.910,0,-102,-28,5,3
328006,-0.01,-0.00,1.00,-0.85,0.00,0.06,-2.50,12.50,37.00,53.650921,9.698374,4.30,0.37,12,3.930,0,-102,-28,5,3
328106,-0.01,-0.00,1.00,-0.18,0.00,0.06,-1.50,11.50,43.00,53.650921,9.698374,4.30,0.37,12,3.930,0,-98,-27,5,3
328206,-0.00,-0.00,1.00,0.67,0.06,0.06,-1.50,10.50,38.00,53.650921,9.698374,4.30,0.17,12,3.970,0,-99,-27,5,3
328306,-0.01,-0.01,1.00,0.79,0.12,0.06,-2.50,13.50,44.00,53.650921,9.698374,4.30,0.52,12,3.870,0,-101,-27,5,3
328406,-0.01,-0.01,1.00,0.24,0.12,0.06,-0.50,10.50,41.00,53.650921,9.698374,4.30,0.81,12,3.890,0,-93,-27,5,3
328506,-0.01,-0.01,1.00,-0.49,-0.06,0.00,-2.50,13.50,43.00,53.650921,9.698374,4.30,0.26,12,3.900,0,-101,-27,5,3
328606,-0.01,-0.00,1.00,-0.61,0.00,0.06,0.50,10.50,39.00,53.650921,9.698374,4.30,0.04,12,3.790,0,-88,-27,5,3
328706,-0.01,-0.00,1.00,-0.06,-0.06,0.06,-2.50,13.50,42.00,53.650921,9.698374,4.30,0.09,12,3.990,0,-101,-27,5,3
328806,-0.01,-0.00,1.00,0.49,0.06,0.12,-2.50,11.50,40.00,53.650921,9.698374,4.30,0.20,12,3.840,0,-103,-27,5,3
328906,-0.00,-0.01,1.00,0.49,0.06,0.00,-1.50,9.50,40.00,53.650921,9.698374,4.30,0.20,12,3.890,0,-100,-27,5,3
329071,-0.01,-0.01,1.00,-0.37,0.06,0.06,-0.50,14.50,43.00,53.650921,9.698374,4.30,0.20,12,3.940,0,-92,-27,5,3
329171,-0.01,-0.00,1.00,-0.37,0.00,0.00,1.50,11.50,42.00,53.650921,9.698374,4.30,0.20,12,3.890,0,-83,-27,5,3
329271,-0.00,-0.00,1.00,0.00,0.06,-0.06,-1.50,10.50,42.00,53.650921,9.698374,4.30,0.20,12,3.940,0,-99,-27,5,3
329371,-0.01,-0.00,1.00,0.55,0.06,0.06,-1.50,10.50,40.00,53.650921,9.698374,4.30,0.20,12,3.850,0,-99,-27,5,3
329471,-0.00,-0.01,1.00,0.61,0.06,0.06,-1.50,12.50,42.00,53.650921,9.698374,4.30,0.20,12,3.960,0,-97,-27,5,3
329571,-0.01,-0.01,1.00,0.00,0.00,0.00,-1.50,11.50,40.00,53.650921,9.698374,4.30,0.20,12,3.980,0,-98,-27,5,3
329672,-0.00,-0.01,1.00,-0.55,0.06,0.00,-0.50,10.50,41.00,53.650921,9.698374,4.30,0.20,12,3.930,0,-93,-27,5,3
329772,-0.01,-0.01,1.00,-0.43,0.00,0.00,-2.50,11.50,40.00,53.650921,9.698374,4.30,0.20,12,3.940,0,-103,-27,5,3
329872,-0.00,-0.00,1.00,0.00,0.06,0.06,-0.50,7.50,43.00,53.650921,9.698374,4.30,0.20,12,3.940,0,-95,-27,5,3
329972,-0.01,-0.01,1.00,0.43,0.12,0.06,-0.50,12.50,40.00,53.650921,9.698374,4.30,0.20,12,3.950,0,-93,-27,5,3
330073,-0.00,-0.01,1.00,0.31,0.06,0.12,-1.50,11.50,41.00,53.650921,9.698374,4.30,0.20,12,3.920,0,-98,-27,5,3
330173,-0.00,-0.01,1.00,-0.31,0.06,0.00,-1.50,11.50,43.00,53.650921,9.698374,4.30,0.20,12,3.880,0,-98,-28,5,3
330273,-0.00,-0.00,1.00,-0.61,-0.06,0.06,-0.50,11.50,44.00,53.650921,9.698374,4.30,0.20,12,3.980,0,-93,-27,5,3
330373,-0.01,-0.00,1.00,-0.24,0.00,0.00,-0.50,11.50,46.00,53.650921,9.698374,4.30,0.20,12,3.940,0,-93,-27,5,3
330473,-0.01,-0.00,1.00,0.37,0.12,0.06,-1.50,10.50,45.00,53.650921,9.698374,4.30,0.20,12,3.940,0,-99,-27,5,3
330573,-0.00,-0.00,1.00,0.43,0.06,0.06,-1.50,10.50,41.00,53.650921,9.698374,4.30,0.20,12,3.810,0,-99,-28,5,3
330673,-0.00,-0.01,1.00,0.06,0.00,0.06,-0.50,12.50,37.00,53.650921,9.698374,4.30,0.20,12,3.910,0,-93,-27,5,3
330777,-0.00,-0.01,1.00,-0.55,0.00,0.06,-1.50,9.50,42.00,53.650921,9.698374,4.30,0.20,12,3.790,0,-100,-28,5,3
330877,-0.00,-0.01,1.00,-0.43,0.00,0.00,-1.50,12.50,42.00,53.650921,9.698374,4.30,0.20,12,3.960,0,-97,-27,5,3
330977,-0.00,-0.00,1.00,0.00,0.06,0.00,-0.50,14.50,43.00,53.650921,9.698374,4.30,0.20,12,3.780,0,-92,-27,5,3
331077,-0.01,-0.01,1.00,0.43,0.06,0.06,-1.50,11.50,43.00,53.650921,9.698374,4.30,0.20,12,3.880,0,-98,-27,5,3
331177,-0.01,-0.01,1.00,0.31,0.06,0.00,-1.50,10.50,44.00,53.650921,9.698374,4.30,0.20,12,3.890,0,-99,-27,5,3
331277,-0.00,-0.01,1.00,-0.12,0.06,0.06,-2.50,10.50,45.00,53.650921,9.698374,4.30,0.20,12,3.920,0,-104,-27,5,3
331377,-0.00,-0.01,1.00,-0.31,0.00,-0.06,-1.50,10.50,38.00,53.650921,9.698374,4.30,0.20,12,3.960,0,-99,-27,5,3
331477,-0.01,-0.00,1.00,-0.24,0.06,0.06,-1.50,15.50,44.00,53.650921,9.698374,4.30,0.20,12,3.920,0,-96,-27,5,3
331577,-0.00,-0.00,1.00,0.12,0.00,0.12,-2.50,15.50,43.00,53.650921,9.698374,4.30,0.20,12,3.930,0,-99,-27,5,3
331677,-0.01,-0.01,1.00,0.37,-0.06,0.00,-2.50,11.50,42.00,53.650921,9.698374,4.30,0.20,12,3.950,0,-103,-27,5,3
331781,-0.00,-0.01,1.00,0.12,0.00,0.00,-1.50,9.50,42.00,53.650921,9.698374,4.30,0.20,12,3.870,0,-100,-27,5,3
331881,-0.01,-0.00,1.00,-0.18,0.06,0.06,-1.50,11.50,37.00,53.650921,9.698375,4.30,0.17,12,3.920,0,-98,-28,5,3
331981,0.00,-0.00,0.99,2.50,-0.31,0.31,-2.50,11.50,45.00,53.650921,9.698375,4.20,0.33,12,3.800,0,-101,-27,5,3
332081,-0.01,-0.00,0.99,-0.43,0.06,-0.06,-0.50,11.50,40.00,53.650921,9.698375,4.20,0.33,12,3.980,0,-94,-27,5,3
332182,-0.01,-0.00,0.99,0.24,-0.49,-0.49,-0.50,12.50,42.00,53.650921,9.698375,4.20,0.33,12,3.940,0,-93,-27,5,3
332297,-0.01,-0.01,1.02,2.26,-0.79,-0.55,0.50,14.50,45.00,53.650921,9.698375,4.20,0.33,12,3.930,0,-89,-27,5,3
332397,-0.01,-0.01,1.01,-0.12,0.06,0.00,-0.50,11.50,42.00,53.650921,9.698375,4.20,0.33,12,3.940,0,-93,-27,5,3
332497,-0.01,-0.01,1.00,0.06,0.00,0.06,-0.50,9.50,43.00,53.650921,9.698375,4.20,0.33,12,3.950,0,-95,-27,5,3
332597,-0.00,-0.01,1.01,-1.65,0.73,0.73,1.50,11.50,42.00,53.650921,9.698375,4.20,0.33,12,3.880,0,-83,-27,5,3
332697,-0.01,-0.00,1.00,0.06,0.06,0.24,-3.50,11.50,42.00,53.650921,9.698375,4.20,0.33,12,3.750,0,-108,-27,5,3
332799,-0.01,-0.00,1.00,0.18,0.00,0.06,-2.50,12.50,39.00,53.650921,9.698375,4.20,0.33,12,3.960,0,-103,-27,5,3
332899,-0.01,-0.00,1.00,0.18,0.00,0.06,-1.50,12.50,44.00,53.650921,9.698375,4.20,0.33,12,3.720,0,-98,-27,5,3
332999,-0.01,-0.01,1.01,0.24,-0.06,0.06,-2.50,10.50,42.00,53.650921,9.698375,4.30,0.48,12,3.920,0,-105,-27,5,3
333112,-0.01,-0.01,1.01,-0.43,0.06,0.00,-2.50,10.50,40.00,53.650921,9.698375,4.30,0.48,12,3.860,0,-105,-27,5,3
333212,-0.00,-0.00,1.01,-0.06,-0.12,-0.12,-4.50,11.50,44.00,53.650921,9.698375,4.30,0.24,12,3.910,0,-112,-27,5,3
333312,-0.00,-0.00,1.01,-0.12,0.06,-0.06,0.50,10.50,38.00,53.650921,9.698375,4.30,0.19,12,3.940,0,-88,-27,5,3
333412,-0.01,-0.01,1.01,-0.12,0.00,0.00,-0.50,11.50,40.00,53.650921,9.698375,4.30,0.02,12,3.880,0,-93,-27,5,3
333512,-0.01,-0.00,1.01,0.06,0.00,0.00,0.50,14.50,41.00,53.650921,9.698375,4.30,0.19,12,3.950,0,-89,-27,5,3
333612,-0.01,-0.00,1.01,0.00,0.06,0.06,0.50,14.50,39.00,53.650921,9.698376,4.30,0.35,12,3.930,0,-89,-27,5,3
333712,-0.01,-0.01,1.00,-0.06,0.06,-0.06,-0.50,9.50,42.00,53.650921,9.698376,4.30,0.37,12,4.030,0,-94,-27,5,3
333814,-0.01,-0.00,1.00,-0.12,0.12,0.06,-0.50,11.50,43.00,53.650921,9.698376,4.30,0.11,12,3.840,0,-93,-27,5,3
333914,-0.00,-0.01,1.00,0.00,0.06,-0.06,-2.50,7.50,40.00,53.650921,9.698376,4.30,0.11,12,3.970,0,-109,-27,5,3
334014,-0.00,0.00,1.00,0.18,0.12,0.12,-0.50,11.50,42.00,53.650921,9.698376,4.30,0.13,12,3.880,0,-93,-27,5,3
334114,-0.01,-0.00,1.00,0.31,-0.06,0.00,-1.50,9.50,43.00,53.650921,9.698376,4.30,0.06,12,3.950,0,-100,-27,5,3
334214,-0.01,-0.01,1.00,0.18,0.00,0.18,-3.50,10.50,42.00,53.650921,9.698375,4.30,0.35,12,3.870,0,-110,-27,5,3
334314,-0.00,0.02,1.00,-0.31,0.00,-0.18,-1.50,10.50,42.00,53.650921,9.698375,4.30,0.59,12,3.960,0,-98,-27,5,3
334414,-0.00,-0.02,1.00,-0.31,-0.06,-0.12,-1.50,10.50,42.00,53.650921,9.698375,4.30,0.44,12,3.941,0,-99,-27,5,3
334514,-0.00,0.01,1.00,-0.49,-0.06,0.00,-1.50,12.50,46.00,53.650921,9.698375,4.30,0.20,12,4.030,0,-97,-27,5,3
334614,-0.00,-0.01,1.00,0.00,0.18,0.18,-3.50,10.50,40.00,53.650921,9.698375,4.30,0.19,12,3.940,0,-110,-27,5,3
334714,-0.00,0.01,1.01,0.31,0.06,0.06,-2.50,12.50,42.00,53.650921,9.698375,4.30,0.11,12,3.950,0,-101,-27,5,3
334814,-0.00,-0.01,1.00,0.37,0.06,0.18,-2.50,10.50,36.00,53.650921,9.698375,4.30,0.11,12,3.820,0,-104,-27,5,3
334914,-0.01,-0.00,1.00,0.12,0.00,0.06,-1.50,9.50,42.00,53.650921,9.698375,4.30,0.11,12,3.930,0,-100,-27,5,3
335014,-0.01,-0.00,1.00,-0.12,0.12,0.00,-2.50,13.50,43.00,53.650921,9.698375,4.30,0.20,12,3.940,0,-101,-27,5,3
335133,-0.01,-0.00,1.00,0.06,0.06,0.12,-2.50,11.50,47.00,53.650921,9.698375,4.30,0.04,12,3.880,0,-103,-27,5,3
335233,-0.01,-0.00,1.00,0.24,0.12,0.00,-0.50,11.50,43.00,53.650921,9.698375,4.30,0.13,12,3.760,0,-94,-27,5,3
335333,-0.01,-0.00,1.00,0.06,0.06,0.06,1.50,11.50,42.00,53.650921,9.698375,4.30,0.06,12,3.800,0,-83,-27,5,3
335433,-0.00,-0.00,1.00,0.12,0.18,0.12,-1.50,8.50,43.00,53.650921,9.698375,4.30,0.06,12,3.930,0,-101,-27,5,3
335533,0.00,-0.00,1.00,-0.24,0.06,0.00,-1.50,11.50,42.00,53.650921,9.698376,4.30,0.06,12,3.910,0,-97,-27,5,3
335640,0.00,-0.01,1.00,-0.12,-0.06,0.00,-0.50,12.50,45.00,53.650921,9.698375,4.30,0.20,12,4.020,0,-92,-27,5,3
335740,-0.01,0.00,1.00,-0.12,0.00,0.12,-1.50,11.50,42.00,53.650921,9.698375,4.30,0.20,12,3.940,0,-98,-27,5,3
335840,-0.01,-0.01,1.00,0.06,-0.06,0.06,-1.50,12.50,43.00,53.650921,9.698375,4.30,0.11,12,3.890,0,-98,-27,5,3
335940,-0.01,-0.00,1.00,0.06,0.00,0.06,-2.50,11.50,46.00,53.650921,9.698375,4.30,0.11,12,3.780,0,-104,-27,5,3
336040,-0.00,-0.00,1.00,0.00,0.06,0.06,-0.50,13.50,42.00,53.650921,9.698375,4.30,0.11,12,3.920,0,-93,-27,5,3
336141,-0.00,-0.00,1.00,-0.12,0.06,0.00,-1.50,9.50,45.00,53.650921,9.698375,4.30,0.11,12,3.790,0,-99,-27,5,3
336241,-0.00,-0.00,1.00,-0.12,0.00,-0.06,-4.50,12.50,43.00,53.650921,9.698375,4.30,0.20,12,3.950,0,-110,-27,5,3
336341,-0.00,-0.00,1.00,-0.06,-0.06,-0.12,-1.50,9.50,41.00,53.650921,9.698375,4.30,0.20,12,3.880,0,-100,-27,5,3
336441,-0.00,-0.00,1.00,0.12,0.00,0.06,-1.50,9.50,42.00,53.650921,9.698375,4.30,0.20,12,3.980,0,-100,-27,5,3
336542,-0.01,-0.00,1.00,0.18,0.12,0.12,-3.50,13.50,40.00,53.650921,9.698375,4.30,0.20,12,3.770,0,-105,-27,5,3
336642,-0.01,-0.00,1.00,0.12,0.12,0.12,-1.50,14.50,46.00,53.650921,9.698375,4.30,0.20,12,3.900,0,-97,-27,5,3
336742,-0.00,-0.00,1.00,0.18,0.24,0.24,-2.50,11.50,39.00,53.650921,9.698375,4.30,0.30,12,3.720,0,-103,-27,5,3
336842,-0.00,-0.00,1.00,-0.06,0.06,0.12,-0.50,12.50,45.00,53.650921,9.698375,4.30,0.13,12,3.950,0,-92,-27,5,3
336967,-0.00,0.01,1.00,-0.18,0.06,0.00,-1.50,10.50,39.00,53.650921,9.698375,4.30,0.13,12,3.940,0,-98,-27,5,3
337067,-0.00,-0.01,1.01,0.06,0.12,-0.06,-1.50,12.50,44.00,53.650921,9.698375,4.30,0.13,12,3.800,0,-97,-27,5,3
337186,-0.00,0.00,1.00,0.00,0.06,0.00,-0.50,10.50,41.00,53.650921,9.698375,4.30,0.13,12,3.930,0,-93,-27,5,3
337286,-0.00,-0.01,1.00,-0.18,0.00,0.00,-2.50,9.50,41.00,53.650921,9.698375,4.30,0.13,12,3.920,0,-105,-27,5,3
337387,-0.01,0.01,1.00,-1.40,-0.18,-0.31,-1.50,11.50,41.00,53.650921,9.698375,4.30,0.13,12,3.930,0,-98,-27,5,3
337487,-0.00,-0.01,1.00,-0.18,0.12,0.12,-2.50,14.50,43.00,53.650921,9.698375,4.30,0.13,12,3.910,0,-100,-27,5,3
337587,-0.00,0.01,1.00,0.12,0.06,0.00,-2.50,12.50,42.00,53.650921,9.698375,4.30,0.13,12,3.930,0,-101,-27,5,3
337687,-0.00,-0.00,1.00,0.18,0.06,-0.06,-4.50,11.50,42.00,53.650921,9.698375,4.30,0.13,12,3.910,0,-111,-27,5,3
337787,-0.00,-0.01,1.00,0.37,0.06,0.06,-3.50,10.50,42.00,53.650921,9.698375,4.30,0.13,12,3.950,0,-109,-27,5,3
337919,-0.00,-0.00,1.00,-0.12,0.06,0.00,-3.50,9.50,42.00,53.650921,9.698375,4.30,0.13,12,3.930,0,-111,-27,5,3
338019,-0.01,-0.01,1.00,-0.18,-0.06,0.00,-1.50,13.50,39.00,53.650921,9.698375,4.30,0.30,12,3.880,0,-97,-27,5,3
338119,-0.01,0.00,1.00,0.06,0.06,-0.06,-4.50,12.50,43.00,53.650921,9.698375,4.30,0.19,12,3.910,0,-110,-27,5,3
338219,-0.01,-0.01,1.00,0.18,0.06,0.06,0.50,10.50,43.00,53.650921,9.698376,4.30,0.17,12,3.830,0,-88,-27,5,3
338319,-0.00,0.00,1.00,0.24,0.06,0.00,-1.50,11.50,39.00,53.650921,9.698375,4.30,0.72,12,3.920,0,-97,-27,5,3
338419,-0.00,-0.01,1.00,-0.06,0.06,0.06,-0.50,14.50,48.00,53.650921,9.698375,4.20,0.20,12,3.830,0,-92,-27,5,3
338519,-0.01,0.00,1.00,-0.24,0.00,0.00,-1.50,11.50,42.00,53.650921,9.698375,4.20,0.13,12,3.920,0,-98,-27,5,3
338619,-0.01,-0.00,1.00,-0.12,0.06,0.00,-2.50,11.50,42.00,53.650921,9.698375,4.30,0.28,12,3.950,0,-103,-27,5,3
338719,-0.00,0.00,1.00,0.18,0.06,0.06,-2.50,11.50,45.00,53.650921,9.698375,4.30,0.57,12,3.950,0,-103,-27,5,3
338819,-0.00,-0.00,1.00,0.12,0.06,0.00,-1.50,10.50,44.00,53.650921,9.698375,4.30,0.33,12,3.950,0,-99,-27,5,3
338919,-0.00,-0.00,1.00,0.18,0.00,0.06,-2.50,11.50,42.00,53.650921,9.698375,4.30,0.33,12,3.910,0,-102,-27,5,3
339035,-0.00,-0.00,1.00,0.00,0.00,0.12,-3.50,12.50,41.00,53.650921,9.698375,4.30,0.33,12,3.910,0,-106,-27,5,3
339135,-0.00,0.00,1.00,-0.18,-0.06,0.06,-0.50,11.50,45.00,53.650921,9.698375,4.30,0.56,12,3.880,0,-93,-27,5,3
339235,-0.01,-0.00,1.00,0.00,-0.18,-0.06,1.50,12.50,48.00,53.650921,9.698376,4.20,0.15,12,3.950,0,-84,-27,5,3
339335,-0.01,-0.00,1.00,0.37,0.00,0.06,-0.50,11.50,42.00,53.650921,9.698376,4.20,0.15,12,3.920,0,-93,-27,5,3
339435,-0.00,0.00,1.00,0.43,-0.06,0.06,-2.50,10.50,40.00,53.650921,9.698376,4.20,0.15,12,3.870,0,-104,-27,5,3
339535,-0.00,-0.01,1.00,0.12,0.06,0.00,-2.50,11.50,42.00,53.650921,9.698376,4.20,0.15,12,3.960,0,-103,-27,5,3
339635,-0.00,-0.00,1.00,-0.18,0.00,-0.06,-1.50,10.50,43.00,53.650921,9.698376,4.20,0.15,12,3.940,0,-98,-27,5,3
339739,-0.00,-0.01,1.00,0.24,-0.06,0.24,-1.50,12.50,42.00,53.650921,9.698375,4.30,0.15,12,3.930,0,-97,-27,5,3
339839,-0.00,-0.00,1.00,0.24,-0.06,0.06,-3.50,9.50,38.00,53.650921,9.698375,4.30,0.43,12,3.950,0,-110,-27,5,3
339939,-0.01,0.00,0.99,-0.12,-0.24,-0.37,-3.50,12.50,43.00,53.650921,9.698375,4.30,0.19,12,3.930,0,-106,-27,5,3
340039,-0.01,0.00,1.00,-0.49,0.06,0.00,-5.50,10.50,39.00,53.650921,9.698375,4.30,0.07,12,3.880,0,-118,-27,5,3
340139,-0.01,-0.02,1.01,1.59,0.00,1.83,-4.50,9.50,45.00,53.650921,9.698375,4.30,0.07,12,3.931,0,-121,-27,5,3
340239,-0.01,-0.01,1.01,3.11,-0.12,-0.18,-4.50,10.50,44.00,53.650921,9.698375,4.30,0.07,12,3.930,0,-115,-27,5,3
340339,-0.02,0.13,1.13,7.51,3.05,-3.42,-3.50,8.50,41.00,53.650921,9.698375,4.30,0.07,12,3.76-6,-1,-107,-27,5,3
340439,-0.17,-0.25,0.94,-9.83,2.08,15.81,-4.50,10.50,41.00,53.650921,9.698375,4.30,0.07,12,3.9314,-9,-179,-27,5,3
340539,-0.04,-0.04,0.96,-7.14,1.04,-13.31,-3.50,8.50,41.00,53.650921,9.698375,4.30,0.07,12,3.822,-2,-127,-27,5,3
340639,0.03,0.02,1.02,-2.93,-0.24,-1.77,-2.50,11.50,44.00,53.650921,9.698375,4.30,0.07,12,3.93-1,1,-95,-27,5,3
340739,0.02,0.01,1.01,4.94,-1.95,11.90,-1.50,9.50,46.00,53.650921,9.698375,4.30,0.07,12,3.790,0,-94,-27,5,3
340839,-0.06,-0.13,0.99,0.85,0.85,22.95,-3.50,8.50,37.00,53.650921,9.698375,4.30,0.44,12,3.957,-3,-148,-27,5,3
340939,-0.01,-0.01,1.02,2.50,-0.18,0.55,-5.50,9.50,46.00,53.650921,9.698375,4.30,0.22,12,3.770,0,-123,-27,5,3
341039,0.01,0.04,1.00,-2.75,0.92,-12.82,-2.50,8.50,41.00,53.650921,9.698375,4.30,0.22,12,3.94-2,0,-101,-27,5,3
341139,-0.00,-0.01,1.06,-12.63,1.34,5.25,-6.50,8.50,41.00,53.650921,9.698375,4.30,0.22,12,3.860,0,-129,-27,5,3
341282,0.01,-0.01,1.02,-2.38,0.31,-7.14,-3.50,7.50,43.00,53.650921,9.698375,4.30,0.22,12,3.840,0,-113,-27,5,3
341382,-0.04,-0.01,1.01,0.24,1.22,-1.16,-4.50,10.50,43.00,53.650921,9.698375,4.30,0.22,12,3.940,-1,-121,-27,5,3
341482,0.04,0.08,0.99,0.24,2.69,3.72,-2.50,9.50,46.00,53.650921,9.698375,4.30,0.22,12,3.93-4,2,-91,-27,5,3
341582,-0.01,-0.01,0.99,-3.48,1.16,0.92,-4.50,10.50,43.00,53.650921,9.698375,4.30,0.22,12,3.980,0,-114,-27,5,3
341682,-0.01,0.00,0.99,1.10,0.24,0.06,-5.50,7.50,48.00,53.650921,9.698375,4.30,0.22,12,3.950,0,-127,-27,5,3
341782,-0.01,-0.01,1.00,2.14,0.31,-0.55,-3.50,10.50,41.00,53.650921,9.698375,4.30,0.22,12,3.790,0,-111,-27,5,3
341882,-0.05,-0.06,1.01,-0.98,0.67,-6.41,-1.50,9.50,46.00,53.650921,9.698375,4.30,0.22,12,3.933,-3,-120,-27,5,3
341984,-0.03,-0.02,1.01,1.77,-0.37,0.37,-2.50,8.50,45.00,53.650921,9.698375,4.30,0.22,12,3.820,-1,-115,-27,5,3
342084,-0.00,-0.00,0.99,0.00,0.12,0.06,-3.50,9.50,44.00,53.650921,9.698375,4.30,0.22,12,3.930,0,-111,-27,5,3
342184,-0.01,-0.01,1.01,-1.22,0.12,0.00,-1.50,6.50,47.00,53.650921,9.698375,4.30,0.22,12,3.930,0,-107,-27,5,3
342303,-0.01,-0.01,1.01,-0.85,0.18,0.06,-1.50,8.50,47.00,53.650921,9.698375,4.30,0.22,12,3.940,0,-103,-27,5,3
342403,-0.01,-0.01,1.00,1.04,-0.12,0.12,-2.50,10.50,41.00,53.650921,9.698376,4.20,0.22,12,3.920,0,-105,-27,5,3
342503,-0.01,-0.01,1.00,-0.18,0.06,0.00,-8.50,12.50,45.00,53.650921,9.698376,4.20,0.98,12,3.910,0,-125,-27,5,3
342603,0.00,-0.00,1.01,-0.06,0.06,0.06,-4.50,9.50,42.00,53.650921,9.698376,4.20,0.31,12,3.910,0,-115,-27,5,3
342703,0.00,-0.01,1.01,-0.49,-0.06,-0.18,-5.50,13.50,43.00,53.650921,9.698376,4.20,0.28,12,3.950,0,-112,-27,5,3
342805,-0.01,-0.00,1.00,-0.37,-0.12,-0.06,-4.50,12.50,44.00,53.650921,9.698376,4.20,0.07,12,3.980,0,-111,-27,5,3
342905,-0.01,-0.01,1.00,0.12,0.00,0.00,-5.50,14.50,44.00,53.650921,9.698376,4.20,0.07,12,3.990,0,-112,-27,5,3
343005,-0.01,-0.01,1.00,0.31,0.06,0.06,-7.50,14.50,44.00,53.650921,9.698376,4.20,0.06,12,3.980,0,-119,-27,5,3
343105,-0.01,-0.01,1.00,0.18,0.06,0.06,-5.50,14.50,42.00,53.650921,9.698376,4.20,0.11,12,3.980,0,-112,-27,5,3
343206,-0.01,-0.01,1.00,-0.18,0.06,0.00,-7.50,15.50,47.00,53.650921,9.698376,4.20,0.11,12,3.990,0,-117,-27,5,3
343308,-0.00,-0.00,1.00,-0.43,0.12,-0.18,-7.50,13.50,45.00,53.650921,9.698376,4.10,0.30,12,3.990,0,-119,-27,5,3
343408,-0.01,-0.01,1.01,-4.15,1.59,-0.31,-8.50,11.50,47.00,53.650921,9.698376,4.10,0.33,12,3.920,0,-129,-27,5,3
343508,-0.01,-0.01,1.01,0.85,-0.06,0.06,-7.50,12.50,47.00,53.650921,9.698376,4.10,0.31,12,3.950,0,-123,-27,5,3
343608,-0.01,-0.01,0.99,-3.11,0.55,1.40,-9.50,14.50,40.00,53.650921,9.698376,4.10,0.31,12,3.960,0,-124,-27,5,3
343708,0.01,0.03,1.01,0.79,-0.73,-2.99,-7.50,11.50,40.00,53.650921,9.698376,4.10,0.20,12,3.93-1,0,-119,-27,5,3
343808,-0.01,-0.01,1.01,-1.16,0.24,0.12,-8.50,12.50,42.00,53.650921,9.698376,4.10,0.13,12,3.930,0,-126,-27,5,3
343908,-0.02,-0.04,1.04,-0.49,-0.67,7.69,-7.50,17.50,44.00,53.650921,9.698376,4.10,0.13,12,3.972,-1,-118,-27,5,3
344008,0.00,-0.05,1.08,8.00,-0.37,2.08,-9.50,17.50,39.00,53.650921,9.698376,4.10,0.13,12,3.962,0,-121,-27,5,3
344108,-0.02,-0.02,1.05,-0.43,-0.61,-0.24,-9.50,13.50,42.00,53.650921,9.698376,4.10,0.13,12,3.791,-1,-129,-27,5,3
344208,-0.01,-0.01,1.00,3.66,-1.46,1.04,-8.50,12.50,39.00,53.650921,9.698376,4.10,0.13,12,3.940,0,-126,-27,5,3
344308,0.01,0.01,1.02,0.98,0.18,2.62,-11.50,16.50,41.00,53.650921,9.698376,4.10,0.41,12,3.970,0,-123,-27,5,3
344408,-0.00,-0.01,0.99,-0.12,0.12,0.12,-9.50,15.50,41.00,53.650921,9.698377,4.10,0.41,12,3.950,0,-122,-27,5,3
344510,-0.01,-0.00,1.00,0.49,0.06,-0.06,-10.50,17.50,35.00,53.650921,9.698376,4.00,0.04,12,3.930,0,-121,-27,5,3
344610,-0.01,-0.01,1.01,0.79,-0.18,-0.12,-7.50,13.50,38.00,53.650921,9.698376,4.00,0.33,12,3.800,0,-120,-27,5,3
344710,-0.01,-0.01,1.01,-1.28,-0.37,-0.55,-8.50,17.50,34.00,53.650921,9.698376,4.00,0.22,12,3.940,0,-117,-27,5,3
344810,-0.00,-0.01,1.00,0.98,0.06,0.12,-8.50,17.50,39.00,53.650921,9.698376,4.00,0.13,12,4.020,0,-116,-27,5,3
344910,0.01,0.01,1.00,-2.14,-0.12,-0.43,-8.50,16.50,36.00,53.650921,9.698376,4.00,0.13,12,3.990,0,-116,-27,5,3
345010,-0.00,-0.00,0.99,-0.12,1.04,-0.24,-9.50,15.50,41.00,53.650921,9.698376,4.00,0.13,12,4.000,0,-122,-27,5,3
345110,-0.00,0.00,0.99,0.06,0.18,-0.06,-4.50,16.50,38.00,53.650921,9.698376,4.00,0.13,12,3.990,0,-105,-27,5,3
345210,-0.05,0.04,1.01,-5.49,4.82,-5.49,-7.50,15.50,37.00,53.650921,9.698377,4.00,0.39,12,3.99-2,-2,-119,-27,5,3
345310,-0.01,0.00,1.00,-2.01,-1.59,-0.43,-5.50,15.50,33.00,53.650921,9.698377,4.00,0.06,12,3.940,0,-110,-27,5,3
345410,-0.05,-0.01,0.98,-3.23,0.79,9.22,-4.50,14.50,33.00,53.650921,9.698377,4.00,0.44,12,3.940,-2,-113,-27,5,3
345510,-0.08,-0.04,1.04,-0.24,-0.49,12.51,-3.50,12.50,37.00,53.650921,9.698377,4.10,0.19,12,3.981,-4,-118,-27,5,3
345624,-0.01,0.01,1.03,-4.58,1.04,0.43,-3.50,12.50,34.00,53.650921,9.698377,4.00,0.22,12,3.940,0,-106,-27,5,3
345724,-0.01,0.02,1.00,1.10,0.55,0.24,-3.50,14.50,31.00,53.650921,9.698377,4.00,0.22,12,3.94-1,0,-103,-27,5,3
345824,-0.00,0.02,1.01,2.44,0.24,0.79,-4.50,13.50,34.00,53.650921,9.698377,4.00,0.06,12,3.99-1,0,-107,-27,5,3
345924,0.00,0.02,1.01,5.74,-0.61,-1.34,-1.50,12.50,33.00,53.650921,9.698377,4.00,0.06,12,3.950,0,-96,-27,5,3
346024,0.00,0.01,0.99,-1.28,0.18,-0.24,-3.50,11.50,35.00,53.650921,9.698377,4.00,0.06,12,3.930,0,-105,-27,5,3
346124,-0.01,0.00,1.01,2.38,-0.49,0.00,-5.50,11.50,30.00,53.650921,9.698377,4.00,0.11,12,3.930,0,-116,-27,5,3
346225,-0.00,0.02,1.00,0.06,-0.18,-0.06,-3.50,14.50,34.00,53.650921,9.698378,4.00,0.24,12,3.960,0,-103,-27,5,3
346325,-0.00,-0.00,1.00,2.56,-0.79,-0.31,-4.50,13.50,29.00,53.650921,9.698377,4.00,0.17,12,3.940,0,-108,-27,5,3
346425,0.01,-0.00,1.05,11.72,-3.05,-1.89,-7.50,12.50,32.00,53.650921,9.698377,4.00,0.17,12,3.960,0,-120,-27,5,3
