timestamp,accX,accY,accZ,gyroX,gyroY,gyroZ,magX,magY,magZ,latitude,longitude,gpsAltitude,Speed,SatCount,roll,pitch,yaw,pressure,temperature,paltitude
184490,-0.01,-0.07,1.00,0.61,-0.12,-0.24,-23.50,-3.50,43.50,53.650890,9.698389,5.90,0.24,9,3.94-4,0,35,-5,7,3
186944,-0.02,-0.06,1.00,-1.28,0.12,1.95,-22.50,-2.50,44.50,53.650867,9.698431,6.60,0.06,12,3.98-4,0,34,-5,7,3
187062,-0.01,-0.06,1.00,-0.06,0.61,0.49,-24.50,-3.50,41.50,53.650867,9.698431,6.60,0.06,12,3.99-3,0,36,-5,7,3
187162,-0.01,-0.08,1.00,-0.06,-0.55,-0.18,-24.50,-1.50,41.50,53.650867,9.698431,6.60,0.06,12,3.87-3,0,29,-5,7,3
187262,0.00,-0.07,1.00,-0.49,0.24,-0.67,-25.50,-5.50,38.50,53.650867,9.698431,6.60,0.06,12,3.88-2,0,38,-5,7,3
187362,0.01,-0.06,1.00,0.43,0.24,-0.43,-24.50,-2.50,42.50,53.650867,9.698431,6.60,0.06,12,3.92-1,0,61,-5,7,3
187462,-0.00,-0.07,1.00,0.67,-0.43,-0.73,-24.50,-0.50,43.50,53.650867,9.698431,6.60,0.06,12,3.890,0,100,-5,7,3
187562,-0.03,-0.08,1.00,-0.73,0.00,-1.22,-24.50,-3.50,39.50,53.650867,9.698431,6.60,0.06,12,3.953,0,140,-5,7,3
187662,-0.03,-0.06,1.00,-1.04,0.06,0.12,-24.50,-2.50,38.50,53.650867,9.698431,6.60,0.06,12,3.914,-1,171,-5,7,3
187762,-0.03,-0.06,1.00,-0.12,0.18,0.67,-24.50,-2.50,41.50,53.650867,9.698431,6.60,0.06,12,3.914,-1,187,-5,7,3
187862,-0.02,-0.07,1.00,0.00,0.06,-0.18,-23.50,-3.50,39.50,53.650867,9.698431,6.60,0.06,12,3.955,-1,188,-5,7,3
187980,-0.02,-0.06,1.00,-0.18,-0.06,0.67,-24.50,-3.50,40.50,53.650867,9.698431,6.60,0.06,12,3.954,-1,184,-5,7,3
188080,-0.01,-0.08,1.00,-0.06,0.37,-0.24,-24.50,-3.50,44.50,53.650867,9.698431,6.60,0.06,12,3.984,-1,176,-5,7,3
188180,-0.01,-0.05,1.00,-0.43,-0.24,0.55,-23.50,-4.50,39.50,53.650867,9.698431,6.60,0.06,12,3.984,0,169,-5,7,3
188281,-0.02,-0.06,1.00,1.83,0.31,1.10,-25.50,-4.50,42.50,53.650867,9.698431,6.60,0.06,12,3.932,0,167,-5,7,3
188383,-0.02,-0.09,1.00,0.92,0.12,1.59,-23.50,-2.50,39.50,53.650867,9.698431,6.60,0.06,12,3.944,-1,167,-5,7,3
188484,-0.01,-0.08,0.99,-0.55,-0.31,-0.24,-23.50,-3.50,40.50,53.650867,9.698431,6.60,0.06,12,3.995,0,163,-5,7,3
188584,-0.01,-0.09,1.00,0.06,-0.18,-0.61,-24.50,-2.50,43.50,53.650867,9.698431,6.60,0.06,12,3.925,0,163,-5,7,3
188684,0.00,-0.07,1.01,0.18,0.31,0.06,-24.50,-1.50,43.50,53.650867,9.698431,6.60,0.06,12,3.944,0,167,-5,7,3
188784,-0.01,-0.06,0.99,0.55,-0.12,0.55,-24.50,-3.50,36.50,53.650867,9.698431,6.60,0.06,12,3.943,0,167,-5,7,3
188884,-0.02,-0.08,0.99,0.12,0.18,-0.06,-24.50,-2.50,41.50,53.650867,9.698431,6.60,0.06,12,3.964,0,167,-5,7,3
188984,-0.03,-0.07,1.00,-1.28,0.24,-0.24,-23.50,-2.50,38.50,53.650867,9.698431,6.60,0.06,12,3.894,-1,167,-5,7,3
189174,-0.00,-0.12,1.00,0.18,-0.06,-0.12,-23.50,-2.50,42.50,53.650867,9.698431,6.70,0.07,12,4.065,0,164,-5,7,3
189274,0.01,-0.06,1.00,-2.08,0.18,0.12,-24.50,-1.50,37.50,53.650867,9.698431,6.70,0.07,12,3.974,0,168,-5,7,3
189374,-0.01,-0.07,1.00,-0.24,-0.06,0.61,-23.50,-2.50,44.50,53.650867,9.698431,6.70,0.07,12,3.953,0,168,-5,7,3
189474,-0.01,-0.05,1.00,0.24,0.12,-0.06,-26.50,-2.50,40.50,53.650867,9.698431,6.70,0.07,12,3.842,0,170,-5,7,3
189575,-0.01,-0.09,1.00,0.31,0.06,0.06,-24.50,-0.50,43.50,53.650867,9.698431,6.70,0.07,12,3.964,0,171,-5,7,3
189675,-0.01,-0.08,1.00,-1.16,0.00,-0.12,-24.50,-3.50,41.50,53.650867,9.698431,6.70,0.07,12,3.975,0,165,-5,7,3
189775,-0.01,-0.04,1.00,-0.43,0.12,0.00,-24.50,-2.50,42.50,53.650867,9.698431,6.70,0.07,12,3.962,0,168,-5,7,3
189877,-0.02,-0.08,1.00,1.71,0.00,1.22,-23.50,-1.50,39.50,53.650867,9.698431,6.70,0.07,12,3.943,0,171,-5,7,3
189977,-0.02,-0.08,1.00,-0.06,0.06,0.00,-23.50,-2.50,42.50,53.650867,9.698432,6.70,0.07,12,3.954,0,166,-5,7,3
190077,-0.01,-0.06,1.00,0.12,-0.31,-0.85,-23.50,-1.50,38.50,53.650867,9.698432,6.70,0.07,12,3.963,0,168,-5,7,3
190178,-0.01,-0.06,1.00,-0.61,0.06,0.00,-25.50,-4.50,41.50,53.650867,9.698432,6.70,0.07,12,3.933,0,165,-5,7,3
190278,-0.01,-0.07,1.00,-0.06,0.12,0.00,-25.50,-0.50,42.50,53.650867,9.698432,6.70,0.07,12,3.963,0,171,-5,7,3
190378,-0.01,-0.07,1.00,-0.49,-0.06,0.24,-23.50,-2.50,42.50,53.650867,9.698432,6.70,0.07,12,3.964,0,168,-5,7,3
190482,-0.01,-0.06,1.00,0.43,0.24,0.18,-22.50,-2.50,41.50,53.650867,9.698432,6.70,0.07,12,3.953,0,168,-5,7,3
190582,-0.01,-0.06,1.00,0.61,0.00,0.79,-25.50,-5.50,43.50,53.650867,9.698432,6.70,0.07,12,3.983,0,163,-5,7,3
190682,-0.00,-0.07,1.00,1.40,-0.12,1.22,-23.50,-1.50,41.50,53.650867,9.698432,6.70,0.15,12,4.053,0,169,-5,7,3
190782,-0.01,-0.08,0.99,0.12,0.06,0.00,-24.50,-1.50,41.50,53.650867,9.698432,6.70,0.15,12,3.945,0,168,-5,7,3
190886,-0.01,-0.07,0.99,-0.61,0.00,-0.67,-25.50,-2.50,41.50,53.650867,9.698432,6.70,0.07,12,3.944,0,167,-5,7,3
190986,-0.01,-0.06,1.00,0.18,0.00,-0.06,-25.50,-0.50,41.50,53.650867,9.698432,6.70,0.07,12,3.883,0,173,-5,7,3
191103,-0.01,-0.08,1.00,0.12,0.00,0.55,-24.50,-1.50,39.50,53.650867,9.698432,6.70,0.06,12,3.954,0,170,-5,7,3
191203,-0.01,-0.08,1.00,-0.18,-0.18,-0.18,-25.50,-2.50,36.50,53.650867,9.698432,6.70,0.06,12,3.874,0,168,-5,7,3
191307,-0.00,-0.07,0.99,-0.18,0.00,-0.31,-25.50,-2.50,39.50,53.650867,9.698432,6.70,0.02,12,3.943,0,168,-5,7,3
191407,-0.01,-0.07,0.99,-0.73,0.43,-0.06,-25.50,-0.50,39.50,53.650867,9.698432,6.70,0.02,12,3.974,0,172,-5,7,3
191507,-0.02,-0.07,1.00,-0.55,-0.18,0.85,-24.50,-1.50,36.50,53.650867,9.698432,6.70,0.02,12,3.964,0,171,-5,7,3
191607,-0.02,-0.07,1.00,0.00,0.06,0.55,-23.50,-4.50,35.50,53.650867,9.698432,6.70,0.02,12,3.973,0,164,-5,7,3
191707,-0.00,-0.07,0.99,0.24,0.18,-0.67,-24.50,-3.50,36.50,53.650867,9.698432,6.70,0.02,12,3.983,0,165,-5,7,3
191807,-0.01,-0.08,0.99,-0.24,-0.18,-0.37,-25.50,-0.50,43.50,53.650867,9.698432,6.70,0.02,12,3.904,0,170,-5,7,3
191907,-0.01,-0.07,1.00,-0.67,0.24,0.24,-23.50,-1.50,42.50,53.650867,9.698432,6.70,0.02,12,3.844,0,169,-5,7,3
192007,-0.01,-0.08,1.00,-0.06,0.12,0.18,-24.50,-3.50,38.50,53.650867,9.698432,6.80,0.09,12,3.994,0,166,-5,7,3
192107,-0.01,-0.08,1.00,-0.24,-0.31,0.12,-23.50,-3.50,45.50,53.650867,9.698432,6.80,0.09,12,3.984,0,163,-5,7,3
192207,-0.01,-0.07,1.00,-0.12,0.12,0.06,-25.50,-3.50,42.50,53.650867,9.698432,6.80,0.04,12,3.953,0,165,-5,7,3
192308,-0.01,-0.08,1.00,0.37,0.06,0.00,-24.50,-2.50,39.50,53.650867,9.698432,6.80,0.04,12,3.924,0,167,-5,7,3
192408,-0.01,-0.07,1.00,0.00,-0.24,0.06,-24.50,-1.50,37.50,53.650867,9.698432,6.80,0.06,12,3.934,0,170,-5,7,3
192509,-0.02,-0.07,0.99,-0.37,0.31,0.12,-22.50,-1.50,38.50,53.650867,9.698432,6.80,0.07,12,3.904,-1,169,-5,7,3
192609,-0.01,-0.07,0.99,-0.73,0.24,-0.12,-25.50,-0.50,38.50,53.650867,9.698432,6.80,0.07,12,3.963,0,172,-5,7,3
192709,-0.00,-0.06,0.98,-0.18,-0.18,0.24,-23.50,-6.50,41.50,53.650867,9.698432,6.80,0.15,12,3.943,0,159,-5,7,3
192809,-0.00,-0.07,0.99,-0.92,0.37,0.06,-21.50,-1.50,38.50,53.650867,9.698432,6.80,0.31,12,3.884,0,168,-5,7,3
192909,-0.01,-0.08,0.99,-1.28,0.31,-0.12,-23.50,-3.50,37.50,53.650867,9.698432,6.80,0.07,12,3.954,0,165,-5,7,3
193010,-0.02,-0.07,1.00,-0.37,-0.24,-0.18,-24.50,-1.50,38.50,53.650867,9.698432,6.80,0.07,12,3.944,-1,170,-5,7,3
193110,-0.01,-0.08,1.00,0.37,0.12,-0.12,-23.50,-2.50,42.50,53.650867,9.698432,6.80,0.17,12,4.044,0,167,-5,7,3
193210,-0.01,-0.07,1.00,0.00,-0.06,0.18,-24.50,-2.50,39.50,53.650867,9.698432,6.80,0.06,12,3.964,0,167,-5,7,3
193310,-0.01,-0.07,1.00,-0.06,-0.12,0.18,-24.50,-2.50,42.50,53.650867,9.698432,6.80,0.13,12,3.914,0,167,-5,7,3
193410,-0.02,-0.07,1.00,0.12,0.18,-0.24,-24.50,-2.50,41.50,53.650867,9.698432,6.80,0.04,12,3.963,-1,168,-5,7,3
193543,-0.01,-0.08,1.00,-0.43,-0.12,0.18,-23.50,-1.50,44.50,53.650867,9.698432,6.80,0.13,12,3.974,0,168,-5,7,3
193643,-0.01,-0.07,1.00,-0.24,0.12,0.00,-25.50,-3.50,39.50,53.650867,9.698432,6.80,0.13,12,3.933,0,166,-5,7,3
193744,-0.01,-0.08,1.00,0.00,0.12,0.43,-25.50,-4.50,40.50,53.650867,9.698432,6.80,0.13,12,3.954,0,163,-5,7,3
193844,-0.00,-0.07,0.99,-0.37,-0.06,-0.18,-22.50,-2.50,34.50,53.650867,9.698432,6.80,0.13,12,3.974,0,167,-5,7,3
193944,-0.00,-0.07,0.99,0.12,0.06,0.24,-22.50,-4.50,42.50,53.650867,9.698432,6.80,0.13,12,3.954,0,162,-5,7,3
194044,-0.01,-0.08,0.99,-0.31,0.12,0.12,-24.50,-4.50,40.50,53.650867,9.698432,6.80,0.13,12,3.844,0,162,-5,7,3
194144,-0.01,-0.07,1.00,-0.24,0.00,0.18,-22.50,-2.50,36.50,53.650867,9.698432,6.80,0.13,12,3.933,0,167,-5,7,3
194244,-0.01,-0.08,1.00,-0.06,0.06,-0.18,-25.50,-1.50,36.50,53.650867,9.698432,6.80,0.13,12,3.994,0,170,-5,7,3
194344,-0.01,-0.07,1.00,-0.24,0.00,0.06,-24.50,0.50,36.50,53.650867,9.698432,6.80,0.13,12,3.964,0,174,-5,7,3
194444,-0.01,-0.07,1.00,-0.24,-0.06,0.12,-24.50,-2.50,42.50,53.650867,9.698432,6.80,0.13,12,3.904,0,167,-5,7,3
194548,-0.01,-0.08,1.00,-0.06,0.06,0.12,-26.50,-3.50,45.50,53.650867,9.698432,6.80,0.13,12,3.864,0,165,-5,7,3
194648,-0.01,-0.07,1.00,-0.24,0.06,0.00,-25.50,-3.50,36.50,53.650867,9.698432,6.80,0.13,12,3.844,0,166,-5,7,3
194748,-0.01,-0.07,1.00,-0.06,-0.06,0.12,-24.50,-2.50,40.50,53.650867,9.698432,6.80,0.13,12,3.884,0,167,-5,7,3
194848,-0.01,-0.08,1.00,-0.18,0.12,0.12,-23.50,-2.50,39.50,53.650867,9.698432,6.80,0.13,12,3.994,0,166,-5,7,3
194948,-0.01,-0.07,1.00,-0.18,0.06,0.12,-25.50,-3.50,39.50,53.650867,9.698433,6.80,0.13,12,3.923,0,166,-5,7,3
195048,-0.01,-0.08,1.00,-0.06,0.00,0.00,-25.50,-2.50,39.50,53.650867,9.698433,6.80,0.13,12,3.864,0,168,-5,7,3
195161,-0.01,-0.07,1.00,-0.18,0.06,0.24,-25.50,-2.50,41.50,53.650867,9.698433,6.80,0.13,12,3.794,0,168,-5,7,3
195261,-0.01,-0.07,1.00,-0.06,0.00,0.00,-25.50,-3.50,38.50,53.650867,9.698433,6.80,0.13,12,3.864,0,166,-5,7,3
195361,-0.01,-0.07,1.00,-0.12,0.06,0.12,-24.50,-5.50,39.50,53.650867,9.698433,6.80,0.13,12,3.904,0,161,-5,7,3
195461,-0.01,-0.07,0.99,-0.18,0.00,0.18,-24.50,-0.50,40.50,53.650867,9.698433,6.80,0.13,12,3.944,0,171,-5,7,3
195561,-0.01,-0.07,1.00,-0.18,0.00,0.12,-25.50,-0.50,41.50,53.650867,9.698433,6.80,0.13,12,3.944,0,172,-5,7,3
195661,-0.01,-0.07,1.00,-0.18,0.06,0.00,-24.50,-2.50,41.50,53.650867,9.698433,6.80,0.13,12,3.944,0,167,-5,7,3
195766,-0.01,-0.07,1.00,-0.12,0.06,0.00,-23.50,-3.50,40.50,53.650867,9.698433,6.80,0.13,12,3.934,0,164,-5,7,3
195866,-0.01,-0.07,1.00,-0.18,0.00,0.00,-24.50,-2.50,38.50,53.650867,9.698433,6.80,0.13,12,3.954,0,167,-5,7,3
195966,-0.01,-0.07,1.00,-0.18,0.00,0.06,-25.50,-2.50,38.50,53.650867,9.698433,6.80,0.13,12,3.924,0,168,-5,7,3
196066,-0.01,-0.08,1.00,-0.24,0.00,0.06,-24.50,-2.50,37.50,53.650867,9.698433,6.80,0.07,12,3.954,0,167,-5,7,3
196166,-0.00,-0.07,1.00,-0.31,0.12,-0.37,-25.50,-2.50,37.50,53.650867,9.698433,6.80,0.07,12,3.953,0,168,-5,7,3
196266,0.00,-0.07,1.00,0.12,-0.06,0.43,-23.50,-2.50,40.50,53.650867,9.698433,6.80,0.07,12,3.924,0,166,-5,7,3
196366,-0.01,-0.08,1.00,-0.18,0.00,0.31,-24.50,-1.50,41.50,53.650867,9.698433,6.80,0.07,12,3.964,0,169,-5,7,3
196466,-0.01,-0.07,1.00,-0.24,0.06,-0.06,-25.50,-2.50,39.50,53.650867,9.698433,6.80,0.07,12,3.853,0,168,-5,7,3
196566,-0.02,-0.07,1.00,-0.06,0.00,-0.06,-25.50,-2.50,35.50,53.650867,9.698433,6.80,0.07,12,3.934,0,168,-5,7,3
196666,-0.01,-0.08,1.00,-0.24,0.06,-0.06,-25.50,-5.50,40.50,53.650867,9.698433,6.80,0.07,12,3.944,0,161,-5,7,3
196767,-0.01,-0.07,1.00,-0.12,0.06,0.06,-25.50,-1.50,36.50,53.650867,9.698433,6.80,0.07,12,3.934,0,170,-4,7,3
196869,-0.01,-0.08,1.00,-0.12,0.00,0.12,-24.50,-3.50,42.50,53.650867,9.698433,6.80,0.07,12,3.984,0,165,-5,7,3
196969,-0.01,-0.07,1.00,-0.24,0.00,0.12,-24.50,-3.50,38.50,53.650867,9.698433,6.80,0.07,12,3.964,0,166,-5,7,3
197103,-0.01,-0.08,1.00,-0.06,0.00,0.00,-24.50,-1.50,42.50,53.650867,9.698433,6.80,0.11,12,3.934,0,169,-5,7,3
197209,-0.01,-0.07,1.00,-0.18,0.00,0.12,-20.50,-3.50,42.50,53.650867,9.698433,6.90,0.11,12,3.904,0,162,-5,7,3
197309,-0.01,-0.07,1.00,0.00,0.00,0.00,-23.50,-2.50,42.50,53.650867,9.698433,6.90,0.11,12,3.954,0,166,-5,7,3
197409,-0.01,-0.08,1.00,-0.31,0.06,0.06,-25.50,-2.50,41.50,53.650867,9.698433,6.90,0.15,12,3.974,0,167,-5,7,3
197509,-0.02,-0.07,1.00,-0.06,0.06,0.12,-25.50,-1.50,42.50,53.650867,9.698433,6.90,0.02,12,3.923,0,170,-5,7,3
197609,-0.01,-0.08,1.00,-0.12,0.06,-0.06,-24.50,-4.50,38.50,53.650867,9.698433,6.90,0.06,12,3.924,0,163,-5,7,3
197709,-0.01,-0.07,1.00,-0.18,-0.06,0.12,-23.50,-5.50,42.50,53.650867,9.698433,6.90,0.07,12,3.954,0,160,-5,7,3
197809,-0.01,-0.07,1.00,0.00,0.06,0.12,-23.50,-1.50,41.50,53.650867,9.698433,6.90,0.06,12,3.964,0,169,-5,7,3
197912,-0.01,-0.08,1.00,-0.18,0.06,0.12,-24.50,1.50,40.50,53.650867,9.698433,6.90,0.11,12,3.924,0,176,-5,7,3
198020,-0.01,-0.07,1.00,-0.06,0.00,0.00,-25.50,-2.50,41.50,53.650867,9.698433,6.90,0.11,12,3.914,0,168,-5,7,3
198120,-0.01,-0.07,1.00,-0.06,0.00,0.06,-23.50,-4.50,38.50,53.650867,9.698433,6.90,0.11,12,3.894,0,162,-5,7,3
198220,-0.01,-0.07,1.00,-0.24,0.00,0.06,-23.50,-4.50,34.50,53.650867,9.698433,6.90,0.11,12,3.924,0,163,-5,7,3
198320,-0.01,-0.07,1.00,-0.12,0.00,0.06,-25.50,-2.50,38.50,53.650867,9.698433,6.90,0.06,12,3.934,0,168,-5,7,3
198420,-0.01,-0.08,1.00,-0.18,0.06,0.12,-24.50,-2.50,38.50,53.650867,9.698433,6.90,0.20,12,3.924,0,167,-5,7,3
198520,-0.01,-0.07,1.00,-0.18,0.06,0.12,-24.50,-0.50,40.50,53.650867,9.698433,6.90,0.04,12,3.954,0,172,-5,7,3
198623,-0.01,-0.07,1.00,-0.12,0.00,0.12,-25.50,-3.50,41.50,53.650867,9.698433,6.90,0.04,12,3.954,0,165,-5,7,3
198723,-0.01,-0.07,1.00,-0.18,0.00,0.06,-23.50,-6.50,41.50,53.650867,9.698433,6.90,0.04,12,3.934,0,158,-5,7,3
198823,-0.01,-0.07,1.00,-0.12,0.00,0.06,-23.50,-3.50,39.50,53.650867,9.698433,6.90,0.04,12,3.944,0,164,-5,7,3
198923,-0.01,-0.07,1.00,-0.12,0.12,0.06,-23.50,-3.50,38.50,53.650867,9.698433,6.90,0.04,12,3.974,0,165,-5,7,3
199023,-0.01,-0.07,1.00,-0.12,0.06,0.06,-23.50,-1.50,39.50,53.650867,9.698433,6.90,0.15,12,3.974,0,169,-5,7,3
199155,-0.01,-0.07,1.00,-0.12,0.00,0.06,-23.50,-1.50,40.50,53.650867,9.698434,6.90,0.15,12,3.894,0,169,-5,7,3
199264,-0.01,-0.07,1.00,-0.12,0.00,0.06,-23.50,-2.50,40.50,53.650867,9.698434,6.90,0.15,12,3.974,0,167,-5,7,3
199364,-0.01,-0.07,1.00,-0.24,0.00,0.06,-24.50,-2.50,39.50,53.650867,9.698434,6.90,0.15,12,3.864,0,167,-5,7,3
199464,-0.01,-0.07,1.00,-0.12,0.00,0.12,-24.50,-2.50,38.50,53.650867,9.698434,6.90,0.15,12,3.944,0,168,-5,7,3
199564,-0.01,-0.06,1.00,0.24,0.06,0.37,-24.50,-2.50,39.50,53.650867,9.698434,6.90,0.15,12,3.703,0,168,-5,7,3
199664,-0.01,-0.08,1.00,0.00,0.06,0.00,-21.50,-2.50,41.50,53.650867,9.698434,6.90,0.15,12,3.744,0,164,-5,7,3
199764,-0.01,-0.08,1.00,-0.61,0.00,-0.06,-24.50,-2.50,38.50,53.650867,9.698434,6.90,0.15,12,3.954,0,167,-5,7,3
199864,-0.01,-0.07,1.00,0.12,0.06,0.12,-23.50,-3.50,44.50,53.650867,9.698434,6.90,0.15,12,3.963,0,165,-5,7,3
199964,-0.01,-0.08,1.00,0.00,0.00,0.12,-24.50,-3.50,36.50,53.650867,9.698434,6.90,0.15,12,3.904,0,165,-5,7,3
200065,-0.01,-0.07,1.00,-0.24,0.00,0.00,-23.50,-5.50,42.50,53.650867,9.698434,6.90,0.15,12,3.934,0,160,-5,7,3
200165,-0.01,-0.07,1.00,-0.18,0.12,0.12,-23.50,-2.50,36.50,53.650867,9.698434,6.90,0.15,12,3.934,0,167,-5,7,3
200265,-0.01,-0.07,1.00,-0.06,0.00,0.00,-22.50,-2.50,43.50,53.650867,9.698434,6.90,0.15,12,3.934,0,166,-5,7,3
200365,-0.01,-0.07,1.00,-0.12,0.00,0.06,-24.50,-2.50,41.50,53.650867,9.698434,6.90,0.15,12,3.934,0,167,-5,7,3
200466,-0.01,-0.08,1.00,-0.18,0.06,0.06,-24.50,-1.50,43.50,53.650867,9.698434,6.90,0.15,12,3.984,0,169,-5,7,3
200566,-0.01,-0.07,1.00,-0.18,0.06,0.00,-24.50,-2.50,39.50,53.650867,9.698434,6.90,0.15,12,3.914,0,167,-5,7,3
200668,-0.01,-0.08,1.00,-0.12,0.06,0.00,-23.50,-4.50,40.50,53.650867,9.698434,6.90,0.15,12,3.904,0,162,-5,7,3
200768,-0.01,-0.07,1.00,-0.24,0.12,0.00,-25.50,-2.50,42.50,53.650867,9.698434,6.90,0.15,12,3.914,0,167,-5,7,3
200868,-0.01,-0.07,1.00,-0.31,0.06,-0.06,-24.50,-4.50,31.50,53.650867,9.698434,6.90,0.15,12,3.953,0,164,-5,7,3
200968,-0.01,-0.08,1.00,0.00,-0.06,0.18,-24.50,-2.50,39.50,53.650867,9.698434,6.90,0.15,12,3.884,0,167,-5,7,3
201068,-0.01,-0.07,1.00,-0.12,0.06,0.12,-24.50,-4.50,39.50,53.650867,9.698434,6.90,0.15,12,3.944,0,163,-5,7,3
201168,-0.01,-0.07,1.00,-0.12,0.00,0.06,-23.50,-3.50,40.50,53.650867,9.698434,6.90,0.15,12,3.954,0,164,-5,7,3
201290,-0.01,-0.08,1.00,-0.18,0.06,0.06,-25.50,-3.50,42.50,53.650867,9.698434,6.90,0.15,12,3.924,0,165,-5,7,3
201390,-0.01,-0.07,1.00,-0.18,0.12,0.06,-24.50,-5.50,41.50,53.650867,9.698434,6.90,0.09,12,3.934,0,161,-5,7,3
201490,-0.00,-0.07,1.00,-0.49,0.06,0.00,-26.50,-2.50,39.50,53.650867,9.698434,6.90,0.06,12,3.934,0,168,-5,7,3
201590,-0.00,-0.08,1.00,0.73,-0.12,0.12,-26.50,-1.50,40.50,53.650867,9.698434,6.90,0.02,12,3.944,0,170,-5,7,3
201690,-0.01,-0.07,1.00,0.00,-0.06,0.12,-23.50,-1.50,38.50,53.650867,9.698434,6.90,0.11,12,3.884,0,169,-5,7,3
201790,-0.01,-0.08,1.00,-0.18,-0.06,0.12,-26.50,-1.50,39.50,53.650867,9.698434,6.90,0.19,12,3.944,0,170,-5,7,3
201890,-0.01,-0.08,1.00,-0.49,0.06,0.06,-25.50,-4.50,39.50,53.650867,9.698434,6.90,0.13,12,3.944,0,163,-5,7,3
201990,-0.01,-0.07,1.00,-0.18,0.12,0.18,-24.50,-2.50,37.50,53.650867,9.698434,6.90,0.13,12,4.044,0,168,-5,7,3
202090,-0.01,-0.07,1.00,0.06,0.00,0.00,-25.50,-3.50,39.50,53.650867,9.698434,6.90,0.13,12,3.864,0,166,-5,7,3
202190,-0.01,-0.08,1.00,-0.24,0.00,0.06,-23.50,-3.50,44.50,53.650867,9.698434,6.90,0.17,12,3.984,0,163,-5,7,3
202290,-0.01,-0.07,1.00,-0.12,0.12,0.06,-22.50,-1.50,39.50,53.650867,9.698434,7.00,0.22,12,3.694,0,169,-5,7,3
202390,-0.01,-0.08,1.00,0.00,-0.06,0.06,-23.50,-2.50,38.50,53.650867,9.698434,7.00,0.24,12,3.824,0,166,-5,7,3
202505,-0.01,-0.07,1.00,-0.18,0.12,0.06,-24.50,-2.50,40.50,53.650867,9.698434,7.00,0.04,12,3.844,0,167,-5,7,3
202605,-0.01,-0.08,1.00,0.00,0.12,-0.06,-25.50,-0.50,41.50,53.650867,9.698434,7.00,0.04,12,3.884,0,172,-5,7,3
202705,-0.01,-0.08,1.00,-0.12,-0.06,0.06,-24.50,-1.50,39.50,53.650867,9.698434,7.00,0.04,12,3.894,0,169,-5,7,3
202805,-0.01,-0.07,1.00,-0.06,0.12,0.06,-23.50,-2.50,40.50,53.650867,9.698434,7.00,0.06,12,3.934,0,167,-5,7,3
202905,-0.01,-0.08,1.00,0.00,0.06,0.00,-24.50,-2.50,35.50,53.650867,9.698434,7.00,0.07,12,3.934,0,168,-5,7,3
203005,-0.01,-0.08,0.99,-0.24,-0.06,0.06,-24.50,-3.50,35.50,53.650867,9.698434,7.00,0.07,12,3.924,0,166,-5,7,3
203105,-0.01,-0.07,1.00,-0.12,0.12,0.06,-24.50,-1.50,36.50,53.650867,9.698434,7.00,0.04,12,3.954,0,170,-5,7,3
203205,-0.01,-0.08,1.00,-0.06,0.06,0.00,-25.50,-2.50,41.50,53.650867,9.698435,7.00,0.06,12,3.914,0,167,-5,7,3
203307,-0.01,-0.07,1.00,-0.12,0.00,0.00,-26.50,-2.50,39.50,53.650867,9.698435,7.00,0.07,12,3.964,0,168,-5,7,3
203408,-0.01,-0.08,1.00,-0.06,0.06,0.06,-24.50,-4.50,36.50,53.650867,9.698435,7.00,0.11,12,3.964,0,163,-5,7,3
203508,-0.01,-0.07,1.00,-0.24,0.00,0.06,-23.50,-3.50,44.50,53.650867,9.698435,7.00,0.04,12,3.904,0,164,-5,7,3
203608,-0.01,-0.07,0.99,0.06,0.00,0.06,-23.50,-2.50,40.50,53.650867,9.698435,7.00,0.04,12,3.884,0,167,-5,7,3
203708,-0.01,-0.08,0.99,-0.12,0.06,0.06,-24.50,-1.50,32.50,53.650867,9.698435,7.00,0.11,12,3.864,0,170,-5,7,3
203808,-0.01,-0.07,1.00,-0.18,-0.06,0.37,-26.50,-3.50,43.50,53.650867,9.698435,7.00,0.13,12,3.964,0,166,-5,7,3
203908,-0.01,-0.08,0.99,-0.12,0.00,0.24,-24.50,-3.50,40.50,53.650867,9.698435,7.00,0.07,12,3.894,0,164,-5,7,3
204010,-0.01,-0.07,0.99,0.31,-0.18,0.18,-25.50,-2.50,38.50,53.650867,9.698435,7.00,0.07,12,3.964,0,168,-5,7,3
204110,-0.02,-0.08,1.00,0.00,0.00,0.06,-24.50,-2.50,37.50,53.650867,9.698435,7.00,0.07,12,3.934,0,167,-5,7,3
204210,-0.01,-0.08,1.00,-0.18,0.06,-0.06,-24.50,-3.50,44.50,53.650867,9.698435,7.00,0.07,12,3.864,0,163,-5,7,3
204310,-0.01,-0.07,0.99,-0.61,0.18,0.18,-24.50,-3.50,39.50,53.650867,9.698435,7.00,0.07,12,3.914,0,165,-5,7,3
204410,-0.02,-0.08,0.99,-1.10,0.31,-0.49,-24.50,-2.50,35.50,53.650867,9.698435,7.00,0.17,12,3.854,0,168,-5,7,3
204511,-0.01,-0.05,1.01,-0.61,0.18,-0.24,-25.50,-3.50,43.50,53.650867,9.698435,7.00,0.11,12,3.952,0,168,-5,7,3
204611,-0.02,-0.09,1.01,-0.24,-0.24,-0.24,-25.50,-2.50,34.50,53.650867,9.698435,7.10,0.06,12,3.945,-1,168,-5,7,3
204711,-0.01,-0.06,1.00,-0.79,0.24,-0.37,-23.50,-3.50,41.50,53.650867,9.698435,7.10,0.09,12,3.903,0,165,-5,7,3
204811,-0.01,-0.08,1.00,-0.49,0.12,-0.06,-25.50,-3.50,40.50,53.650867,9.698435,7.10,0.11,12,3.954,0,165,-5,7,3
204911,-0.02,-0.07,1.01,0.24,-0.18,0.06,-26.50,-5.50,41.50,53.650867,9.698435,7.10,0.06,12,3.913,0,162,-5,7,3
205011,-0.02,-0.08,1.00,0.92,-0.06,-0.06,-26.50,0.50,43.50,53.650867,9.698435,7.10,0.06,12,3.934,-1,174,-5,7,3
205111,-0.02,-0.09,0.99,-1.34,0.31,-0.24,-23.50,-3.50,37.50,53.650867,9.698435,7.10,0.06,12,3.905,-1,164,-5,7,3
205211,-0.02,-0.06,1.00,-0.79,0.31,-0.79,-24.50,-0.50,34.50,53.650867,9.698435,7.10,0.11,12,3.863,-1,174,-5,7,3
205311,-0.01,-0.09,0.99,-0.67,0.37,-0.43,-25.50,-2.50,37.50,53.650867,9.698436,7.10,0.07,12,3.785,0,167,-5,7,3
205411,-0.01,-0.07,0.98,-1.16,0.43,-0.12,-26.50,-2.50,41.50,53.650867,9.698436,7.10,0.06,12,3.944,0,168,-5,7,3
205511,-0.01,-0.07,0.99,-1.04,0.24,0.06,-24.50,-1.50,41.50,53.650867,9.698436,7.10,0.04,12,4.234,0,169,-5,7,3
205611,-0.01,-0.08,1.00,-1.40,0.31,0.24,-23.50,-3.50,41.50,53.650867,9.698436,7.10,0.04,12,3.924,0,164,-5,7,3
205711,-0.01,-0.07,1.00,0.73,-0.06,1.89,-24.50,-2.50,39.50,53.650867,9.698436,7.10,0.02,12,3.894,0,167,-5,7,3
205821,-0.01,-0.08,0.99,-0.92,0.06,0.12,-25.50,-2.50,37.50,53.650867,9.698436,7.10,0.07,12,3.744,0,167,-5,7,3
205921,-0.02,-0.07,1.00,-0.73,0.24,-0.49,-25.50,-4.50,39.50,53.650867,9.698436,7.10,0.06,12,3.803,-1,164,-5,7,3
206021,-0.02,-0.08,0.99,-0.12,0.12,-0.61,-25.50,-3.50,35.50,53.650867,9.698436,7.10,0.06,12,3.934,-1,166,-5,7,3
206121,-0.02,-0.09,0.99,-0.43,0.06,-0.24,-23.50,-3.50,37.50,53.650867,9.698436,7.10,0.07,12,3.925,0,164,-5,7,3
206221,-0.01,-0.06,1.00,-0.49,0.18,0.06,-23.50,-2.50,41.50,53.650867,9.698436,7.10,0.02,12,3.913,0,168,-5,7,3
206321,-0.01,-0.08,0.99,-0.49,0.18,0.31,-24.50,-1.50,37.50,53.650867,9.698436,7.10,0.17,12,3.944,0,169,-5,7,3
206421,-0.02,-0.08,0.99,-0.06,-0.06,0.85,-24.50,-4.50,39.50,53.650867,9.698436,7.10,0.09,12,3.914,0,163,-5,7,3
206521,-0.01,-0.08,0.99,-0.55,0.12,0.31,-25.50,-2.50,35.50,53.650867,9.698436,7.10,0.04,12,3.924,0,168,-5,7,3
206621,-0.01,-0.07,1.00,-0.49,0.06,0.06,-24.50,-3.50,44.50,53.650867,9.698436,7.10,0.04,12,3.963,0,165,-5,7,3
206721,-0.01,-0.08,0.98,0.00,-0.12,-0.18,-25.50,-1.50,40.50,53.650867,9.698436,7.10,0.04,12,3.954,0,169,-5,7,3
206821,-0.01,-0.07,0.99,-1.40,0.43,-0.92,-23.50,-5.50,41.50,53.650867,9.698436,7.10,0.04,12,3.914,0,160,-5,7,3
206921,-0.02,-0.08,1.01,0.00,0.18,-0.31,-25.50,-2.50,40.50,53.650867,9.698436,7.10,0.07,12,3.924,-1,167,-5,7,3
207025,-0.01,-0.08,1.00,-0.85,0.06,0.18,-24.50,-1.50,38.50,53.650867,9.698436,7.10,0.07,12,3.944,0,169,-5,7,3
207125,-0.02,-0.08,1.00,-0.61,0.06,0.98,-23.50,-3.50,37.50,53.650867,9.698436,7.10,0.07,12,3.854,-1,165,-5,7,3
207229,-0.01,-0.07,1.00,0.55,0.00,0.49,-24.50,-3.50,39.50,53.650867,9.698436,7.10,0.07,12,3.914,0,165,-5,7,3
207338,-0.02,-0.08,1.00,-0.18,-0.18,-0.12,-23.50,-1.50,35.50,53.650867,9.698436,7.10,0.07,12,3.864,-1,169,-5,7,3
207438,-0.01,-0.06,1.00,0.00,0.06,0.37,-23.50,-2.50,40.50,53.650867,9.698436,7.10,0.07,12,3.953,0,168,-5,7,3
207538,-0.00,-0.08,0.99,0.18,0.06,-0.06,-25.50,-0.50,43.50,53.650867,9.698436,7.10,0.07,12,3.924,0,170,-5,7,3
207638,-0.00,-0.05,0.99,-0.49,0.00,-0.49,-24.50,-0.50,40.50,53.650867,9.698436,7.10,0.07,12,3.993,0,173,-5,7,3
207738,-0.02,-0.07,1.00,-0.12,0.18,0.55,-26.50,-3.50,39.50,53.650867,9.698436,7.10,0.07,12,3.804,0,166,-5,7,3
207838,-0.02,-0.09,1.00,-0.24,0.00,0.06,-25.50,-2.50,43.50,53.650867,9.698436,7.10,0.07,12,4.035,-1,166,-5,7,3
207938,-0.02,-0.06,1.00,-0.79,0.24,-0.37,-24.50,-2.50,41.50,53.650867,9.698437,7.20,0.07,12,3.903,0,168,-5,7,3
208079,-0.01,-0.10,0.98,0.73,-0.24,0.49,-24.50,-2.50,41.50,53.650867,9.698437,7.20,0.07,12,3.925,0,165,-5,7,3
208179,-0.02,-0.07,0.99,-0.98,0.12,0.12,-22.50,-2.50,39.50,53.650867,9.698437,7.20,0.07,12,3.944,-1,167,-4,7,3
208279,-0.02,-0.07,1.00,0.06,0.31,-0.06,-24.50,-1.50,38.50,53.650867,9.698437,7.20,0.07,12,3.953,-1,170,-5,7,3
208379,-0.01,-0.09,0.99,-0.06,-0.24,0.00,-24.50,-2.50,41.50,53.650867,9.698437,7.20,0.07,12,3.924,0,166,-5,7,3
208479,-0.01,-0.07,0.99,-0.06,0.06,0.06,-23.50,-4.50,40.50,53.650867,9.698437,7.20,0.07,12,3.964,0,163,-5,7,3
208579,-0.01,-0.08,0.99,-0.06,0.24,0.00,-25.50,-5.50,41.50,53.650867,9.698437,7.20,0.07,12,3.844,0,161,-5,7,3
208679,-0.01,-0.08,0.99,-0.24,-0.24,0.00,-24.50,-2.50,41.50,53.650867,9.698437,7.20,0.07,12,3.934,0,167,-5,7,3
208779,-0.01,-0.07,1.00,-0.18,0.06,0.00,-24.50,-2.50,38.50,53.650867,9.698437,7.20,0.07,12,3.884,0,167,-5,7,3
208879,-0.01,-0.08,1.00,-0.18,0.24,0.12,-23.50,-2.50,40.50,53.650867,9.698437,7.20,0.07,12,3.914,0,166,-5,7,3
208979,-0.01,-0.08,1.00,-0.18,-0.24,0.12,-24.50,-3.50,39.50,53.650867,9.698437,7.20,0.07,12,3.914,0,165,-5,7,3
209079,-0.01,-0.08,1.00,-0.12,0.12,0.00,-25.50,-3.50,39.50,53.650867,9.698437,7.20,0.07,12,3.954,0,166,-5,7,3
209181,-0.01,-0.08,1.00,-0.31,0.06,0.06,-23.50,-2.50,40.50,53.650867,9.698437,7.20,0.07,12,3.554,0,166,-5,7,3
209281,-0.01,-0.08,1.00,-0.24,-0.06,0.12,-23.50,-3.50,39.50,53.650867,9.698437,7.20,0.07,12,3.944,0,164,-5,7,3
209386,-0.01,-0.07,1.00,0.12,0.18,0.18,-24.50,-2.50,41.50,53.650867,9.698437,7.20,0.07,12,3.914,0,167,-5,7,3
209486,-0.01,-0.08,1.00,-0.24,0.00,0.12,-25.50,-2.50,33.50,53.650867,9.698437,7.20,0.07,12,3.774,0,168,-5,7,3
209588,-0.01,-0.07,1.00,-0.18,-0.06,0.18,-26.50,-3.50,37.50,53.650867,9.698437,7.20,0.11,12,4.043,0,167,-5,7,3
209688,-0.01,-0.08,1.00,0.06,0.06,0.12,-24.50,0.50,42.50,53.650867,9.698437,7.20,0.06,12,3.854,0,173,-5,7,3
209788,-0.01,-0.07,1.00,-0.31,0.06,0.06,-24.50,-1.50,38.50,53.650867,9.698437,7.20,0.06,12,3.954,0,170,-5,7,3
209888,-0.01,-0.07,0.99,0.06,0.00,0.06,-24.50,-0.50,41.50,53.650867,9.698437,7.20,0.07,12,3.854,0,172,-5,7,3
209988,-0.01,-0.08,1.00,-0.18,0.06,0.06,-25.50,-0.50,38.50,53.650867,9.698437,7.20,0.07,12,3.894,0,172,-5,7,3
210088,-0.01,-0.08,1.00,-0.24,0.00,0.06,-25.50,-3.50,41.50,53.650867,9.698437,7.20,0.07,12,3.904,0,165,-5,7,3
210188,-0.01,-0.08,1.00,-0.06,0.06,0.06,-24.50,-2.50,36.50,53.650867,9.698437,7.20,0.07,12,3.884,0,167,-5,7,3
210288,-0.01,-0.08,1.00,-0.18,0.12,0.06,-24.50,-1.50,43.50,53.650867,9.698437,7.20,0.07,12,3.844,0,169,-5,7,3
210388,-0.01,-0.07,1.00,-0.06,0.06,-0.06,-22.50,-3.50,44.50,53.650867,9.698437,7.20,0.07,12,3.864,0,163,-5,7,3
210488,-0.01,-0.08,0.99,-0.31,0.00,0.12,-25.50,-4.50,41.50,53.650867,9.698437,7.20,0.07,12,3.844,0,163,-5,7,3
210588,-0.01,-0.07,0.99,-0.24,0.06,0.06,-25.50,-3.50,37.50,53.650867,9.698437,7.20,0.07,12,3.924,0,166,-5,7,3
210688,-0.01,-0.08,0.99,-0.18,0.00,0.00,-24.50,-2.50,39.50,53.650867,9.698437,7.20,0.07,12,3.954,0,167,-5,7,3
210788,-0.01,-0.08,0.99,-0.24,0.00,0.12,-24.50,-2.50,39.50,53.650867,9.698437,7.20,0.07,12,3.934,0,166,-5,7,3
210888,-0.01,-0.07,1.00,-0.24,0.18,-0.06,-24.50,-1.50,40.50,53.650867,9.698437,7.20,0.07,12,3.954,0,170,-5,7,3
210988,-0.01,-0.08,1.00,-0.12,-0.06,0.12,-23.50,-3.50,37.50,53.650867,9.698437,7.20,0.07,12,3.924,0,164,-5,7,3
211088,-0.01,-0.08,1.00,0.12,-0.06,0.06,-25.50,-4.50,40.50,53.650867,9.698437,7.20,0.04,12,3.924,0,163,-5,7,3
211188,-0.01,-0.08,1.00,0.00,0.06,0.06,-24.50,-3.50,39.50,53.650867,9.698437,7.20,0.04,12,3.944,0,165,-5,7,3
211288,-0.01,-0.08,1.00,0.00,-0.06,0.00,-24.50,-4.50,41.50,53.650867,9.698437,7.20,0.04,12,3.904,0,162,-5,7,3
211455,-0.01,-0.08,1.00,-0.24,0.06,0.00,-22.50,-2.50,37.50,53.650867,9.698437,7.20,0.04,12,3.854,0,166,-5,7,3
211555,-0.01,-0.07,1.00,-0.24,0.06,0.06,-26.50,-0.50,39.50,53.650867,9.698437,7.20,0.04,12,3.934,0,172,-5,7,3
211655,-0.01,-0.08,1.00,0.00,-0.12,0.00,-26.50,-1.50,41.50,53.650867,9.698437,7.20,0.04,12,3.864,0,169,-5,7,3
211755,-0.01,-0.07,1.00,-0.18,0.12,0.06,-24.50,-2.50,35.50,53.650867,9.698437,7.20,0.04,12,3.904,0,168,-5,7,3
211857,-0.01,-0.08,1.00,-0.12,0.06,0.06,-23.50,0.50,35.50,53.650867,9.698437,7.20,0.04,12,3.934,0,174,-5,7,3
211957,-0.01,-0.08,0.99,-0.12,0.00,0.12,-24.50,-2.50,39.50,53.650867,9.698437,7.20,0.04,12,3.934,0,167,-5,7,3
212057,-0.01,-0.07,1.00,0.00,0.12,0.00,-23.50,-3.50,37.50,53.650867,9.698437,7.20,0.04,12,3.924,0,165,-5,7,3
212157,-0.01,-0.08,1.00,-0.24,0.00,0.12,-24.50,-1.50,41.50,53.650867,9.698437,7.20,0.04,12,3.954,0,169,-5,7,3
212257,-0.01,-0.08,1.00,-0.12,0.00,0.00,-23.50,-2.50,34.50,53.650867,9.698437,7.20,0.04,12,3.824,0,168,-5,7,3
212357,-0.01,-0.08,1.00,-0.18,0.06,0.12,-23.50,-2.50,36.50,53.650867,9.698437,7.20,0.04,12,3.924,0,167,-5,7,3
212457,-0.01,-0.08,1.00,-0.24,0.06,0.18,-23.50,-1.50,41.50,53.650867,9.698437,7.20,0.04,12,3.874,0,169,-5,7,3
212557,-0.01,-0.08,1.00,-0.12,0.00,0.00,-23.50,-2.50,38.50,53.650867,9.698437,7.20,0.04,12,3.894,0,167,-5,7,3
212657,-0.01,-0.08,1.00,-0.24,0.12,0.06,-26.50,-2.50,41.50,53.650867,9.698437,7.20,0.04,12,3.924,0,168,-5,7,3
212757,-0.01,-0.08,1.00,-0.06,0.00,0.06,-23.50,-0.50,45.50,53.650867,9.698437,7.20,0.04,12,3.904,0,170,-5,7,3
212859,-0.01,-0.08,1.00,-0.18,0.12,0.12,-24.50,-3.50,39.50,53.650867,9.698437,7.20,0.04,12,3.814,0,165,-5,7,3
212961,-0.01,-0.07,1.00,-0.24,0.06,0.06,-25.50,-3.50,41.50,53.650867,9.698437,7.20,0.04,12,3.894,0,165,-5,7,3
213061,-0.01,-0.08,1.00,-0.18,0.00,0.06,-24.50,-2.50,41.50,53.650867,9.698437,7.20,0.09,12,3.904,0,167,-5,7,3
213161,-0.01,-0.08,1.00,-0.12,0.00,0.06,-23.50,-2.50,41.50,53.650867,9.698437,7.20,0.09,12,3.864,0,166,-5,7,3
213261,-0.01,-0.08,0.99,-0.18,0.06,0.06,-24.50,-1.50,40.50,53.650867,9.698437,7.20,0.09,12,3.944,0,169,-5,7,3
213361,-0.01,-0.08,1.00,-0.31,0.06,0.06,-25.50,-1.50,39.50,53.650867,9.698437,7.20,0.09,12,3.874,0,170,-5,7,3
213469,-0.01,-0.08,1.00,-0.18,0.06,0.06,-24.50,-2.50,41.50,53.650867,9.698437,7.20,0.09,12,3.944,0,167,-5,7,3
213569,-0.01,-0.08,1.00,-0.12,0.00,0.12,-22.50,-1.50,36.50,53.650867,9.698437,7.20,0.09,12,3.914,0,169,-5,7,3
213669,-0.01,-0.08,1.00,-0.18,0.06,0.06,-25.50,-4.50,39.50,53.650867,9.698437,7.20,0.09,12,3.874,0,163,-5,7,3
213769,-0.01,-0.08,1.00,-0.24,0.06,0.06,-24.50,-4.50,36.50,53.650867,9.698437,7.20,0.09,12,3.864,0,163,-5,7,3
213869,-0.01,-0.08,1.00,-0.12,0.12,0.06,-24.50,-2.50,37.50,53.650867,9.698437,7.20,0.09,12,3.914,0,167,-5,7,3
213971,-0.01,-0.08,1.00,-0.12,0.00,0.18,-24.50,-3.50,39.50,53.650867,9.698437,7.20,0.09,12,3.924,0,165,-5,7,3
214071,-0.01,-0.08,1.00,-0.18,0.06,0.12,-23.50,-3.50,38.50,53.650867,9.698437,7.20,0.09,12,3.924,0,164,-5,7,3
214171,-0.01,-0.08,1.00,-0.18,0.00,0.00,-25.50,-3.50,37.50,53.650867,9.698437,7.20,0.09,12,3.944,0,166,-5,7,3
214272,-0.01,-0.08,1.00,-0.12,0.06,0.06,-26.50,-2.50,42.50,53.650867,9.698437,7.20,0.09,12,3.854,0,167,-5,7,3
214372,-0.01,-0.08,1.00,-0.12,0.00,0.06,-24.50,-2.50,42.50,53.650867,9.698437,7.20,0.09,12,3.944,0,167,-5,7,3
214472,-0.01,-0.08,1.00,-0.18,-0.06,0.12,-23.50,-4.50,42.50,53.650867,9.698437,7.20,0.09,12,3.964,0,162,-5,7,3
214572,-0.01,-0.08,1.00,-0.12,0.12,0.06,-25.50,-2.50,32.50,53.650867,9.698437,7.20,0.09,12,3.834,0,168,-5,7,3
214695,-0.01,-0.08,1.00,-0.12,0.06,0.12,-26.50,-3.50,38.50,53.650867,9.698437,7.20,0.09,12,3.944,0,166,-5,7,3
214795,-0.01,-0.08,1.00,-0.06,0.06,0.12,-23.50,-1.50,42.50,53.650867,9.698437,7.20,0.09,12,3.904,0,168,-5,7,3
214895,-0.01,-0.08,1.00,-0.12,0.00,0.06,-25.50,-2.50,37.50,53.650867,9.698437,7.20,0.09,12,3.814,0,168,-5,7,3
214995,-0.01,-0.08,1.00,-0.18,0.00,0.06,-25.50,-1.50,39.50,53.650867,9.698437,7.20,0.09,12,3.824,0,170,-5,7,3
215095,-0.01,-0.08,1.00,-0.12,0.00,0.06,-22.50,-2.50,36.50,53.650867,9.698437,7.30,0.07,12,3.904,0,166,-5,7,3
215195,-0.01,-0.08,1.00,-0.24,0.12,0.12,-25.50,-2.50,37.50,53.650867,9.698437,7.30,0.07,12,3.854,0,168,-5,7,3
215295,-0.01,-0.07,1.00,-0.18,0.00,0.00,-23.50,-2.50,40.50,53.650867,9.698437,7.30,0.07,12,3.954,0,167,-5,7,3
215395,-0.01,-0.08,1.00,0.06,0.00,0.06,-24.50,-3.50,40.50,53.650867,9.698437,7.30,0.07,12,3.954,0,165,-5,7,3
215495,-0.01,-0.08,1.00,0.00,-0.06,0.12,-23.50,-3.50,39.50,53.650867,9.698437,7.30,0.07,12,3.894,0,164,-5,7,3
215595,-0.01,-0.08,1.00,-0.06,0.00,0.12,-23.50,-3.50,35.50,53.650867,9.698437,7.30,0.07,12,3.914,0,165,-5,7,3
215695,-0.01,-0.08,1.00,-0.24,0.06,0.18,-23.50,-0.50,36.50,53.650867,9.698437,7.30,0.07,12,3.934,0,171,-5,7,3
215795,-0.01,-0.08,0.99,-0.31,0.06,0.06,-24.50,-2.50,42.50,53.650867,9.698437,7.30,0.07,12,3.834,0,167,-5,7,3
215895,-0.01,-0.08,0.99,-0.31,0.06,0.06,-24.50,-2.50,37.50,53.650867,9.698437,7.30,0.07,12,3.904,0,167,-5,7,3
215995,-0.01,-0.08,1.00,-0.24,0.00,0.00,-21.50,-3.50,43.50,53.650867,9.698437,7.30,0.07,12,3.894,0,162,-5,7,3
216095,-0.01,-0.08,1.00,-0.12,0.06,0.06,-24.50,-2.50,39.50,53.650867,9.698437,7.30,0.04,12,3.934,0,167,-5,7,3
216195,-0.01,-0.08,1.00,-0.12,0.06,0.00,-23.50,-3.50,38.50,53.650867,9.698437,7.30,0.04,12,3.934,0,164,-5,7,3
216295,-0.01,-0.08,1.00,-0.18,0.00,0.00,-23.50,-3.50,41.50,53.650867,9.698437,7.30,0.04,12,3.944,0,164,-5,7,3
216395,-0.01,-0.08,1.00,-0.12,0.06,0.06,-23.50,-3.50,38.50,53.650867,9.698437,7.30,0.15,12,3.834,0,164,-5,7,3
216495,-0.01,-0.08,1.00,-0.18,0.00,0.12,-25.50,-3.50,40.50,53.650867,9.698437,7.30,0.17,12,3.854,0,165,-5,7,3
216597,-0.01,-0.08,1.00,-0.12,0.06,0.12,-24.50,-0.50,39.50,53.650867,9.698437,7.30,0.11,12,3.954,0,171,-5,7,3
216697,-0.01,-0.08,1.00,0.06,0.00,0.00,-22.50,-3.50,40.50,53.650867,9.698437,7.30,0.04,12,3.914,0,163,-5,7,3
216797,-0.01,-0.08,0.99,-0.24,0.00,0.12,-26.50,-2.50,37.50,53.650867,9.698437,7.30,0.11,12,3.914,0,168,-5,7,3
216897,-0.01,-0.08,1.00,-0.18,0.06,0.00,-25.50,-2.50,40.50,53.650867,9.698437,7.30,0.06,12,3.934,0,167,-5,7,3
216997,-0.01,-0.08,0.99,-0.18,0.06,0.06,-24.50,-4.50,40.50,53.650867,9.698437,7.30,0.06,12,3.944,0,162,-5,7,3
217097,-0.01,-0.08,1.00,-0.06,0.00,0.00,-23.50,-5.50,37.50,53.650867,9.698437,7.30,0.06,12,3.914,0,160,-5,7,3
217197,-0.01,-0.08,1.00,-0.06,0.00,0.06,-26.50,-1.50,37.50,53.650867,9.698437,7.30,0.06,12,4.144,0,170,-5,7,3
217322,-0.01,-0.08,1.00,-0.31,0.06,0.06,-25.50,-1.50,32.50,53.650867,9.698437,7.30,0.07,12,3.894,0,171,-5,7,3
217424,-0.01,-0.08,1.00,0.00,0.00,-0.06,-26.50,-1.50,40.50,53.650867,9.698437,7.30,0.07,12,3.944,0,170,-5,7,3
217551,-0.01,-0.07,0.99,-0.31,0.00,-0.12,-24.50,-3.50,37.50,53.650867,9.698437,7.30,0.07,12,3.794,0,165,-5,7,3
217651,-0.01,-0.08,0.99,-0.06,0.12,-1.22,-24.50,-4.50,41.50,53.650867,9.698437,7.30,0.07,12,3.614,0,162,-5,7,3
217753,-0.01,-0.07,1.01,0.00,0.00,-1.16,-24.50,-2.50,40.50,53.650867,9.698437,7.30,0.07,12,3.884,0,167,-5,7,3
217853,0.01,-0.09,1.02,1.83,-0.24,0.31,-24.50,-3.50,40.50,53.650867,9.698437,7.30,0.07,12,3.954,0,164,-5,7,3
218146,-0.01,-0.07,1.01,-0.79,0.24,0.31,-23.50,-2.50,40.50,53.650867,9.698437,7.30,0.07,12,3.923,0,167,-5,7,3
218246,0.00,-0.07,1.00,0.55,-0.18,-0.12,-24.50,-2.50,37.50,53.650867,9.698437,7.30,0.07,12,3.893,0,168,-5,7,3
218346,0.01,-0.09,1.00,0.55,-0.31,-0.43,-25.50,0.50,41.50,53.650867,9.698437,7.30,0.07,12,3.925,0,172,-5,7,3
218446,-0.01,-0.07,1.00,0.92,-0.12,-0.73,-25.50,-2.50,41.50,53.650867,9.698437,7.30,0.07,12,3.903,0,168,-5,7,3
218547,-0.02,-0.08,1.00,0.98,-0.18,-1.04,-26.50,-2.50,38.50,53.650867,9.698437,7.30,0.07,12,3.854,-1,168,-5,7,3
218647,-0.02,-0.08,1.00,-0.18,0.00,0.24,-22.50,0.50,43.50,53.650867,9.698437,7.30,0.07,12,3.944,-1,172,-5,7,3
218747,-0.01,-0.08,1.00,-0.73,0.31,-0.06,-24.50,-1.50,43.50,53.650867,9.698437,7.30,0.07,12,3.884,0,168,-5,7,3
218850,-0.01,-0.08,0.99,-0.67,-0.12,0.18,-23.50,-3.50,41.50,53.650867,9.698437,7.30,0.07,12,3.954,0,164,-5,7,3
218950,-0.02,-0.07,1.00,0.06,0.06,0.12,-25.50,-0.50,40.50,53.650867,9.698437,7.30,0.07,12,3.894,-1,172,-5,7,3
219050,-0.01,-0.08,0.99,-0.12,0.12,0.31,-25.50,-3.50,39.50,53.650867,9.698437,7.30,0.07,12,3.934,0,165,-5,7,3
219152,-0.01,-0.08,0.99,-0.49,-0.12,0.24,-24.50,-0.50,40.50,53.650867,9.698437,7.30,0.07,12,3.884,0,171,-5,7,3
219258,-0.01,-0.08,0.99,-0.37,0.12,0.49,-23.50,-1.50,36.50,53.650867,9.698437,7.30,0.07,12,3.834,0,169,-5,7,3
219358,-0.01,-0.07,1.00,-0.98,0.06,0.49,-26.50,-2.50,37.50,53.650867,9.698437,7.30,0.07,12,3.924,0,169,-5,7,3
219458,-0.01,-0.06,1.00,0.43,0.00,1.28,-24.50,-4.50,34.50,53.650867,9.698437,7.30,0.07,12,3.963,0,165,-5,7,3
219570,-0.01,-0.10,0.98,0.31,0.12,-0.18,-25.50,-1.50,40.50,53.650867,9.698437,7.30,0.07,12,3.836,0,167,-5,7,3
219670,-0.02,-0.07,0.99,-0.55,0.12,-1.16,-25.50,-2.50,39.50,53.650867,9.698437,7.30,0.07,12,3.883,-1,168,-5,7,3
219770,-0.03,-0.08,0.99,-0.24,0.06,-0.85,-27.50,-2.50,38.50,53.650867,9.698437,7.30,0.07,12,3.874,-1,168,-5,7,3
219870,-0.02,-0.07,0.99,-0.24,0.06,0.79,-24.50,-2.50,43.50,53.650867,9.698437,7.30,0.07,12,3.874,0,167,-5,7,3
219971,-0.00,-0.07,1.00,0.31,-0.12,0.98,-25.50,-4.50,41.50,53.650867,9.698437,7.30,0.07,12,3.883,0,164,-5,7,3
220071,-0.00,-0.09,0.99,0.18,-0.18,1.46,-25.50,-1.50,37.50,53.650867,9.698437,7.30,0.07,12,3.924,0,169,-5,7,3
220172,-0.02,-0.08,0.99,-0.18,0.06,-0.61,-24.50,-2.50,43.50,53.650867,9.698437,7.30,0.07,12,3.944,-1,166,-5,7,3
220272,-0.03,-0.06,0.99,-0.12,-0.06,-2.20,-24.50,-3.50,43.50,53.650867,9.698437,7.30,0.07,12,3.963,-1,166,-5,7,3
220372,-0.04,-0.11,0.99,-0.31,0.12,-0.79,-23.50,-2.50,38.50,53.650867,9.698437,7.30,0.07,12,3.786,-2,165,-5,7,3
220472,-0.03,-0.05,1.00,-0.67,0.24,1.65,-23.50,-3.50,39.50,53.650867,9.698437,7.30,0.07,12,3.902,-1,167,-5,7,3
220574,-0.01,-0.09,1.00,2.75,-0.61,2.01,-24.50,-2.50,37.50,53.650867,9.698437,7.30,0.07,12,3.945,0,166,-5,7,3
220674,-0.00,-0.10,1.01,-1.22,0.06,-1.10,-21.50,-2.50,40.50,53.650867,9.698437,7.30,0.07,12,3.875,0,163,-5,7,3
220774,-0.01,-0.05,1.00,0.24,0.12,-2.01,-23.50,-2.50,40.50,53.650867,9.698437,7.30,0.07,12,3.882,0,169,-5,7,3
220874,-0.03,-0.13,1.02,-2.87,0.43,1.16,-24.50,-2.50,41.50,53.650867,9.698437,7.30,0.07,12,3.947,-1,163,-5,7,3
220974,-0.01,-0.09,1.01,-0.85,0.00,2.26,-24.50,-2.50,43.50,53.650867,9.698437,7.30,0.07,12,3.955,0,165,-5,7,3
221074,0.06,-0.04,0.97,-3.11,1.83,-1.71,-24.50,-2.50,41.50,53.650867,9.698437,7.30,0.07,12,3.902,3,169,-5,7,3
221174,-0.10,-0.26,1.06,-14.47,4.09,-21.12,-25.50,-1.50,44.50,53.650867,9.698437,7.30,0.07,12,3.9414,-5,158,-5,7,3
221274,-0.13,0.03,0.89,-30.58,-41.56,-16.60,-23.50,1.50,37.50,53.650867,9.698437,7.30,0.07,12,3.82-1,-7,-174,-5,7,3
221374,-0.09,-0.07,1.00,15.62,-57.13,0.73,-21.50,5.50,41.50,53.650867,9.698437,7.30,0.07,12,3.963,-5,-173,-5,7,3
221474,-0.15,-0.01,0.96,14.77,-51.64,-9.64,-22.50,7.50,43.50,53.650867,9.698437,7.30,0.07,12,3.930,-8,-166,-5,7,3
221576,-0.05,-0.10,0.92,-6.59,0.85,0.06,-21.50,12.50,41.50,53.650867,9.698437,7.30,0.07,12,3.946,-3,-161,-5,7,3
221676,-0.35,0.01,0.95,-18.49,-3.54,-15.44,-23.50,11.50,38.50,53.650867,9.698437,7.30,0.07,12,3.860,-20,-161,-5,7,3
221776,-0.29,-0.00,0.84,5.80,-18.19,13.00,-22.50,12.50,41.50,53.650867,9.698437,7.30,0.07,12,3.890,-18,-159,-5,7,3
221876,-0.21,-0.11,0.97,-21.91,-1.71,25.39,-20.50,17.50,38.50,53.650867,9.698437,7.30,0.07,12,3.856,-12,-154,-5,7,3
221976,-0.29,-0.05,1.02,5.55,-16.05,-18.92,-20.50,13.50,36.50,53.650867,9.698437,7.30,0.07,12,3.932,-15,-158,-5,7,3
222076,-0.39,0.02,0.93,-3.11,8.54,30.21,-22.50,15.50,35.50,53.650867,9.698437,7.30,0.07,12,3.94-1,-23,-154,-5,7,3
222176,-0.35,0.01,0.98,-35.64,-5.43,-12.63,-21.50,16.50,38.50,53.650867,9.698437,7.30,0.07,12,3.980,-19,-153,-5,7,3
222276,-0.39,-0.06,0.97,26.18,-4.58,13.12,-21.50,14.50,40.50,53.650867,9.698437,7.30,0.07,12,3.903,-21,-159,-5,7,3
222376,-0.35,-0.05,0.88,-10.80,-6.71,18.86,-23.50,13.50,35.50,53.650867,9.698437,7.30,0.07,12,3.903,-21,-161,-5,7,3
222476,-0.40,-0.12,0.84,41.99,0.61,41.02,-23.50,15.50,37.50,53.650867,9.698437,7.30,0.07,12,3.887,-25,-161,-5,7,3
222576,-0.21,-0.22,1.04,59.02,19.17,47.91,-25.50,13.50,35.50,53.650867,9.698437,7.30,0.07,12,3.8511,-11,-167,-5,7,3
222676,0.01,-0.25,0.75,32.53,-18.62,188.42,-33.50,9.50,34.50,53.650867,9.698437,7.30,0.07,12,3.9118,1,177,-5,7,3
222776,-0.11,-0.60,0.89,18.74,-39.31,267.27,-35.50,1.50,29.50,53.650867,9.698437,7.30,0.07,12,3.9234,-5,161,-5,7,3
222876,-0.01,-0.64,0.98,-6.04,-8.06,283.94,-35.50,-7.50,27.50,53.650867,9.698437,7.30,0.07,12,3.9333,0,149,-5,7,3
222976,0.21,-0.57,0.81,12.76,-39.18,341.92,-27.50,-23.50,33.50,53.650867,9.698437,7.30,0.07,12,3.9434,12,116,-5,7,3
223076,-0.01,-0.26,0.75,5.80,-75.20,261.11,-13.50,-32.50,28.50,53.650867,9.698437,7.30,0.07,12,3.9319,0,108,-5,7,3
223176,0.50,-0.29,0.79,39.00,-37.54,207.82,0.50,-32.50,38.50,53.650867,9.698437,7.30,0.07,12,3.7019,30,64,-5,7,3
223276,0.40,-0.29,0.92,84.90,-6.04,171.39,5.50,-29.50,34.50,53.650867,9.698437,7.30,0.07,12,3.8417,22,63,-5,7,3
223376,0.13,-0.32,0.20,76.48,8.67,15.32,5.50,-27.50,40.50,53.650867,9.698437,7.30,0.07,12,3.8858,18,66,-5,7,3
223476,0.40,-0.15,0.45,-6.71,84.41,2.38,5.50,-28.50,34.50,53.650867,9.698437,7.30,0.07,12,3.8918,39,52,-5,7,3
223577,0.54,-0.20,0.93,-56.52,-8.42,28.50,4.50,-31.50,35.50,53.650867,9.698437,7.30,0.07,12,3.9312,30,59,-5,7,3
223677,0.60,0.06,0.93,-50.54,17.76,-8.97,11.50,-34.50,35.50,53.650867,9.698437,7.30,0.07,12,3.94-3,32,48,-5,7,3
223777,0.53,0.16,0.59,19.29,33.02,-42.48,16.50,-35.50,23.50,53.650867,9.698437,7.30,0.07,12,3.92-15,40,48,-5,7,3
223877,0.64,-0.04,0.73,27.04,8.36,19.59,13.50,-35.50,28.50,53.650867,9.698437,7.30,0.07,12,3.943,41,51,-5,7,3
223977,0.64,-0.07,0.70,34.79,5.37,27.40,13.50,-38.50,30.50,53.650867,9.698437,7.30,0.07,12,3.885,42,52,-5,7,3
224077,0.72,-0.11,0.68,-36.44,14.53,23.80,12.50,-35.50,29.50,53.650867,9.698437,7.30,0.07,12,3.789,45,51,-5,7,3
224177,0.62,0.03,0.90,1.40,-42.36,-5.92,17.50,-39.50,33.50,53.650867,9.698437,7.30,0.07,12,3.94-2,35,48,-5,7,3
224278,0.78,-0.08,0.52,-2.32,-28.32,54.38,16.50,-34.50,37.50,53.650867,9.698437,7.30,0.07,12,3.968,55,41,-5,7,3
224378,0.56,-0.00,0.86,-3.91,-55.79,-47.79,15.50,-28.50,35.50,53.650867,9.698437,7.30,0.07,12,3.860,33,40,-5,7,3
224479,0.56,0.09,0.82,-8.79,-33.94,-8.67,15.50,-29.50,38.50,53.650867,9.698437,7.30,0.07,12,3.89-6,34,38,-5,7,3
224579,0.52,-0.03,0.86,-10.31,-35.10,-21.73,16.50,-27.50,36.50,53.650867,9.698437,7.30,0.07,12,3.951,30,40,-5,7,3
224679,0.31,0.06,0.78,-24.17,-128.17,-19.41,18.50,-23.50,42.50,53.650867,9.698437,7.30,0.07,12,3.97-4,22,32,-5,7,3
224792,0.13,0.09,0.98,4.21,8.18,20.63,20.50,-12.50,41.50,53.650867,9.698437,7.30,0.07,12,3.89-5,6,19,-5,7,3
224892,-0.23,-0.04,1.20,-0.61,-1.40,-12.94,20.50,-13.50,40.50,53.650867,9.698437,7.30,0.07,12,3.912,-10,50,-5,7,3
224992,-0.14,-0.01,0.99,22.22,1.65,-1.04,18.50,-12.50,44.50,53.650867,9.698437,7.30,0.07,12,3.820,-8,47,-5,7,3
225092,0.26,0.18,1.09,30.82,3.23,19.04,17.50,-10.50,46.50,53.650867,9.698435,7.10,0.20,12,3.95-9,13,7,-5,7,3
225192,0.48,-0.13,0.99,-30.94,-44.37,86.98,14.50,-7.50,44.50,53.650867,9.698435,7.10,0.20,12,3.857,26,20,-5,7,3
225293,0.07,0.03,1.01,-1.28,-1.46,0.12,16.50,-6.50,41.50,53.650867,9.698435,7.10,0.20,12,3.91-1,3,15,-5,7,3
225393,0.10,0.04,0.69,3.91,-45.78,-7.87,14.50,-2.50,45.50,53.650867,9.698435,7.10,0.20,12,3.96-2,8,0,-5,7,3
225493,-0.31,-0.10,0.98,10.19,-15.20,11.35,15.50,-0.50,45.50,53.650867,9.698433,7.10,0.44,12,3.955,-17,81,-5,7,3
225595,0.52,0.02,0.99,-11.66,21.55,-144.78,13.50,-3.50,44.50,53.650867,9.698433,7.10,0.30,12,3.940,27,4,-5,7,3
225695,0.05,0.07,0.99,3.66,-7.51,16.72,16.50,-4.50,42.50,53.650867,9.698433,7.10,0.28,12,4.21-3,2,6,-5,7,3
225795,-0.19,0.04,0.99,-11.11,17.40,25.94,14.50,-2.50,42.50,53.650867,9.698433,7.10,0.11,12,3.93-2,-10,6,-5,7,3
225895,0.05,-0.00,1.00,-0.06,0.49,15.08,14.50,-2.50,47.50,53.650871,9.698433,7.10,0.13,12,3.980,3,8,-5,7,3
225995,-0.05,0.02,1.01,-3.54,5.86,-14.16,13.50,-3.50,44.50,53.650871,9.698433,7.10,0.13,12,3.940,-2,13,-5,7,3
226095,0.02,-0.01,1.00,-0.12,-1.83,-0.31,14.50,-2.50,35.50,53.650871,9.698433,7.10,0.13,12,3.950,1,11,-5,7,3
226195,0.07,-0.03,1.01,0.85,-0.92,23.01,15.50,-0.50,38.50,53.650871,9.698433,7.10,0.13,12,3.901,4,5,-5,7,3
226295,-0.12,0.05,0.99,5.00,-8.54,-27.89,15.50,-3.50,42.50,53.650871,9.698432,7.10,0.07,12,4.04-2,-6,7,-5,7,3
226395,0.01,0.00,0.99,-0.85,1.89,0.37,16.50,-4.50,44.50,53.650871,9.698432,7.10,0.11,12,3.800,0,14,-5,7,3
226495,0.04,-0.00,1.00,-1.28,3.30,-1.46,15.50,-6.50,44.50,53.650871,9.698432,7.10,0.17,12,3.940,2,21,-5,7,3
226595,-0.00,-0.00,1.01,-0.43,-0.24,0.31,15.50,-1.50,43.50,53.650871,9.698432,7.10,0.09,12,3.930,0,6,-5,7,3
226695,-0.01,0.00,1.00,-0.06,0.12,0.24,15.50,-1.50,44.50,53.650871,9.698432,7.10,0.50,12,3.950,0,4,-5,7,3
226796,-0.00,-0.01,1.00,0.06,0.37,0.00,15.50,-0.50,41.50,53.650871,9.698432,7.10,0.41,12,3.930,0,2,-5,7,3
226896,0.00,-0.00,1.00,0.00,-0.37,0.24,15.50,-1.50,43.50,53.650871,9.698432,7.10,0.09,12,3.940,0,5,-5,7,3
226999,0.01,-0.00,1.00,0.12,0.06,0.79,14.50,0.50,47.50,53.650871,9.698432,7.10,0.09,12,3.920,0,-1,-5,7,3
227099,0.01,-0.01,1.01,-0.06,0.24,-0.43,14.50,-1.50,44.50,53.650871,9.698432,7.10,0.09,12,3.940,0,6,-5,7,3
227199,0.00,-0.00,1.00,-0.12,-0.18,-0.43,16.50,1.50,43.50,53.650871,9.698432,7.10,0.09,12,3.980,0,-4,-5,7,3
227299,-0.01,0.00,1.00,-0.06,0.00,0.24,15.50,-2.50,45.50,53.650871,9.698432,7.10,0.09,12,3.980,0,9,-5,7,3
227412,0.00,-0.01,1.00,-0.24,0.06,0.12,15.50,-0.50,39.50,53.650871,9.698431,7.10,0.24,12,3.910,0,2,-5,7,3
227512,0.00,0.00,1.00,-0.12,-0.12,0.18,15.50,-3.50,41.50,53.650871,9.698431,7.10,0.13,12,3.950,0,12,-5,7,3
227622,-0.00,-0.01,1.00,-0.06,0.12,0.12,16.50,2.50,44.50,53.650871,9.698430,7.10,0.31,12,3.990,0,-7,-5,7,3
227722,0.00,-0.00,1.00,-0.12,0.18,0.06,16.50,-0.50,38.50,53.650871,9.698430,7.00,0.31,12,3.850,0,1,-5,7,3
227822,-0.00,-0.00,1.00,-0.06,-0.18,0.12,16.50,-0.50,41.50,53.650871,9.698430,7.10,0.07,12,4.000,0,2,-5,7,3
227922,-0.00,-0.00,1.00,-0.06,0.06,0.00,13.50,-1.50,42.50,53.650871,9.698430,7.10,0.04,12,3.930,0,6,-5,7,3
228022,-0.00,0.00,1.00,-0.06,0.12,0.06,15.50,-1.50,43.50,53.650871,9.698430,7.10,0.04,12,3.950,0,5,-5,7,3
228149,-0.00,-0.00,1.00,-0.12,-0.06,0.06,15.50,1.50,45.50,53.650871,9.698430,7.10,0.04,12,4.200,0,-5,-5,7,3
228249,-0.00,-0.00,1.00,-0.18,0.12,0.12,13.50,0.50,45.50,53.650871,9.698430,7.10,0.04,12,3.980,0,-1,-5,7,3
228349,-0.00,-0.00,1.00,-0.12,0.06,0.18,15.50,-3.50,45.50,53.650871,9.698430,7.10,0.04,12,3.870,0,13,-5,7,3
228449,0.00,-0.00,1.00,-0.06,-0.06,0.00,14.50,2.50,43.50,53.650871,9.698430,7.10,0.04,12,3.950,0,-9,-5,7,3
228553,-0.00,0.00,1.00,-0.06,0.12,0.06,17.50,-0.50,42.50,53.650871,9.698430,7.10,0.04,12,3.930,0,1,-5,7,3
228653,0.00,-0.00,1.00,-0.06,-0.06,0.18,15.50,0.50,43.50,53.650871,9.698430,7.10,0.04,12,3.960,0,-1,-5,7,3
228753,-0.00,-0.01,1.00,-0.06,0.00,0.00,14.50,-3.50,40.50,53.650871,9.698430,7.10,0.04,12,3.940,0,14,-5,7,3
228853,-0.00,0.00,1.00,-0.06,0.12,0.06,13.50,-1.50,46.50,53.650871,9.698430,7.10,0.04,12,3.940,0,6,-5,7,3
228953,-0.00,-0.01,1.00,-0.06,-0.06,0.00,14.50,0.50,46.50,53.650871,9.698430,7.10,0.20,12,3.950,0,0,-5,7,3
229053,-0.00,-0.00,1.00,-0.18,0.12,0.00,16.50,-0.50,42.50,53.650871,9.698430,7.10,0.04,12,3.950,0,2,-5,7,3
229153,-0.00,-0.00,1.00,-0.06,0.18,0.12,15.50,-2.50,41.50,53.650871,9.698430,7.10,0.04,12,4.050,0,9,-5,7,3
229253,-0.00,-0.01,1.00,-0.06,-0.06,0.06,16.50,0.50,43.50,53.650871,9.698430,7.10,0.04,12,3.910,0,0,-5,7,3
229353,-0.00,0.00,1.00,-0.18,-0.06,0.18,15.50,-0.50,42.50,53.650871,9.698430,7.10,0.04,12,3.840,0,1,-5,7,3
229453,-0.00,-0.00,1.00,-0.12,0.12,0.12,15.50,-1.50,45.50,53.650871,9.698430,7.10,0.04,12,3.990,0,5,-5,7,3
229553,-0.00,-0.00,1.00,-0.24,-0.06,0.06,13.50,-1.50,44.50,53.650871,9.698430,7.10,0.04,12,3.920,0,7,-5,7,3
229665,-0.00,0.00,1.00,-0.12,0.06,0.06,15.50,-0.50,38.50,53.650871,9.698430,7.10,0.04,12,3.930,0,1,-5,7,3
229765,-0.00,-0.00,1.00,-0.12,0.18,0.06,15.50,-0.50,43.50,53.650871,9.698430,7.10,0.04,12,3.940,0,2,-5,7,3
229865,-0.00,-0.00,1.00,-0.12,-0.06,0.12,15.50,-0.50,40.50,53.650871,9.698430,7.10,0.04,12,3.930,0,2,-5,7,3
229965,-0.00,-0.00,1.00,-0.06,0.06,0.06,18.50,-1.50,38.50,53.650871,9.698430,7.10,0.04,12,3.950,0,4,-5,7,3
230065,-0.00,-0.01,1.00,-0.06,0.12,0.06,17.50,-3.50,44.50,53.650871,9.698430,7.10,0.04,12,3.890,0,12,-5,7,3
230165,-0.00,0.00,1.00,-0.12,-0.06,0.12,15.50,-2.50,43.50,53.650871,9.698430,7.10,0.04,12,3.950,0,8,-5,7,3
230265,-0.00,-0.00,1.00,0.00,0.06,0.06,15.50,-1.50,40.50,53.650871,9.698430,7.10,0.04,12,3.940,0,6,-5,7,3
230365,-0.00,-0.00,1.00,-0.18,0.06,0.12,14.50,-1.50,42.50,53.650871,9.698430,7.10,0.04,12,3.880,0,6,-5,7,3
230465,-0.00,0.00,1.00,-0.06,0.00,0.06,16.50,-3.50,45.50,53.650871,9.698430,7.10,0.04,12,3.940,0,11,-5,7,3
230565,-0.00,-0.01,1.00,-0.06,0.12,0.12,15.50,-3.50,41.50,53.650871,9.698430,7.10,0.04,12,3.940,0,13,-5,7,3
230665,-0.00,0.00,1.00,-0.06,0.06,0.00,15.50,-2.50,40.50,53.650871,9.698430,7.10,0.04,12,3.840,0,8,-5,7,3
230765,-0.00,0.00,1.00,0.43,-0.06,0.12,14.50,-2.50,43.50,53.650871,9.698430,7.10,0.04,12,3.940,0,9,-5,7,3
230869,0.00,-0.01,1.00,0.06,0.00,0.00,16.50,-0.50,43.50,53.650871,9.698430,7.10,0.04,12,3.940,0,3,-5,7,3
230970,-0.00,-0.01,1.00,-0.24,0.12,-0.06,15.50,-1.50,41.50,53.650871,9.698430,7.10,0.04,12,3.970,0,6,-5,7,3
231070,-0.00,0.01,1.00,-0.18,0.06,0.06,15.50,-0.50,45.50,53.650871,9.698428,7.10,0.30,12,3.940,0,0,-5,7,3
231170,-0.00,-0.00,1.00,0.06,0.00,0.18,15.50,-1.50,44.50,53.650871,9.698428,7.10,0.30,12,3.930,0,6,-5,7,3
231270,0.00,0.00,0.99,-0.12,0.06,0.31,14.50,-0.50,43.50,53.650871,9.698428,7.10,0.30,12,3.830,0,1,-5,7,3
231370,-0.01,-0.02,1.00,0.55,-0.06,-0.18,16.50,-2.50,41.50,53.650871,9.698428,7.10,0.30,12,3.951,0,12,-5,7,3
231482,-0.01,0.01,1.00,-0.43,0.06,0.12,15.50,0.50,41.50,53.650871,9.698428,7.10,0.30,12,3.930,0,-3,-5,7,3
231582,-0.00,0.00,1.00,0.12,0.06,0.00,15.50,-0.50,41.50,53.650871,9.698428,7.10,0.30,12,3.880,0,1,-5,7,3
231706,-0.00,-0.01,1.00,-0.31,0.00,0.12,16.50,-1.50,44.50,53.650871,9.698428,7.10,0.00,12,3.880,0,6,-5,7,3
231806,0.00,0.01,1.00,-0.12,0.12,0.00,15.50,-4.50,44.50,53.650871,9.698428,7.00,0.07,12,3.810,0,14,-5,7,3
231906,0.00,-0.01,1.00,-0.06,0.12,-0.12,18.50,-0.50,41.50,53.650871,9.698428,7.00,0.00,12,3.870,0,2,-5,7,3
232006,-0.00,-0.01,1.00,-0.12,0.06,-0.31,14.50,0.50,45.50,53.650871,9.698428,7.00,0.00,12,3.930,0,0,-5,7,3
232106,-0.00,-0.00,1.00,-0.18,0.06,-0.06,16.50,-1.50,42.50,53.650871,9.698428,7.00,0.00,12,3.930,0,5,-5,7,3
232206,-0.00,-0.02,1.00,0.00,-0.12,0.06,14.50,-1.50,42.50,53.650871,9.698428,7.00,0.22,12,3.931,0,9,-5,7,3
232306,0.00,0.02,1.00,-0.24,0.06,0.37,15.50,-2.50,38.50,53.650871,9.698428,7.00,0.09,12,3.940,0,6,-5,7,3
232406,0.00,-0.01,1.00,0.12,0.06,0.18,15.50,0.50,41.50,53.650871,9.698428,7.00,0.07,12,4.020,0,0,-5,7,3
232506,-0.00,-0.00,1.00,-0.24,-0.06,0.06,14.50,-1.50,43.50,53.650871,9.698428,7.00,0.07,12,3.900,0,6,-5,7,3
232606,-0.00,0.01,1.00,-0.06,0.06,0.24,15.50,-1.50,44.50,53.650871,9.698428,7.00,0.07,12,3.920,0,3,-5,7,3
232706,-0.00,0.00,1.00,0.06,-0.06,0.43,16.50,-0.50,43.50,53.650871,9.698427,7.00,0.24,12,3.940,0,1,-5,7,3
232810,-0.01,-0.01,1.00,0.00,0.00,-0.31,15.50,-0.50,41.50,53.650871,9.698427,7.00,0.15,12,3.970,0,3,-5,7,3
232910,-0.00,0.00,1.01,-0.18,0.00,0.31,15.50,-3.50,42.50,53.650871,9.698427,7.00,0.19,12,3.800,0,12,-5,7,3
233010,0.00,-0.00,1.00,-0.12,0.06,-0.06,16.50,-1.50,46.50,53.650871,9.698427,7.00,0.19,12,3.940,0,5,-5,7,3
233110,-0.00,-0.00,1.00,-0.06,0.00,-0.12,14.50,-2.50,46.50,53.650871,9.698427,7.00,0.19,12,3.960,0,10,-5,7,3
233210,-0.00,-0.00,1.00,-0.18,0.06,0.06,15.50,0.50,43.50,53.650871,9.698427,7.00,0.13,12,3.950,0,-1,-5,7,3
233310,-0.00,-0.00,1.00,-0.06,0.06,0.06,16.50,-1.50,46.50,53.650871,9.698427,7.00,0.06,12,3.870,0,5,-5,7,3
233410,-0.00,-0.01,1.00,-0.24,-0.06,0.00,13.50,-1.50,40.50,53.650871,9.698427,7.00,0.43,12,3.940,0,7,-5,7,3
233510,-0.00,0.01,1.00,-0.18,0.06,-0.12,16.50,-0.50,44.50,53.650871,9.698427,7.00,0.22,12,3.920,0,0,-5,7,3
233610,-0.00,-0.01,1.00,0.00,0.06,0.06,12.50,-2.50,38.50,53.650871,9.698427,7.00,0.24,12,3.930,0,12,-5,7,3
233766,-0.00,0.01,1.00,-0.43,0.00,0.12,14.50,-2.50,40.50,53.650871,9.698427,7.10,0.15,12,3.920,0,8,-5,7,3
233870,-0.00,-0.01,1.00,0.12,0.12,0.18,15.50,-0.50,43.50,53.650871,9.698427,7.10,0.15,12,3.940,0,2,-5,7,3
233970,0.00,-0.00,1.00,-0.31,0.00,0.18,14.50,-1.50,41.50,53.650871,9.698427,7.10,0.15,12,3.940,0,6,-5,7,3
234070,0.00,0.00,1.00,-0.06,0.06,0.12,15.50,-2.50,44.50,53.650871,9.698427,7.10,0.04,12,3.890,0,8,-5,7,3
234170,-0.00,-0.01,1.00,-0.06,0.06,0.00,15.50,-0.50,44.50,53.650871,9.698427,7.10,0.04,12,3.940,0,3,-5,7,3
234270,-0.00,0.00,1.00,-0.18,0.00,0.00,13.50,-0.50,39.50,53.650871,9.698427,7.10,0.04,12,3.970,0,2,-5,7,3
234370,-0.00,0.00,1.00,0.12,0.00,0.12,16.50,-1.50,40.50,53.650871,9.698427,7.10,0.04,12,3.940,0,4,-5,7,3
234470,-0.00,-0.01,1.00,-0.06,0.00,0.18,14.50,-1.50,41.50,53.650871,9.698427,7.10,0.04,12,3.930,0,7,-5,7,3
234572,0.00,0.00,1.00,-0.06,0.06,0.12,15.50,-1.50,44.50,53.650871,9.698427,7.10,0.04,12,3.880,0,4,-5,7,3
234672,-0.00,-0.01,1.00,-0.06,-0.06,0.06,15.50,-1.50,42.50,53.650871,9.698427,7.10,0.04,12,3.820,0,6,-5,7,3
234774,-0.00,0.00,1.00,-0.06,0.00,0.12,14.50,-3.50,43.50,53.650871,9.698426,7.10,0.26,12,3.920,0,13,-5,7,3
234874,-0.00,-0.00,1.00,0.12,0.06,0.00,13.50,-1.50,40.50,53.650871,9.698426,7.10,0.26,12,3.940,0,6,-5,7,3
234974,-0.00,-0.01,1.00,-0.31,0.00,0.00,14.50,-3.50,44.50,53.650871,9.698426,7.10,0.26,12,3.900,0,14,-5,7,3
235074,-0.00,0.00,1.00,-0.24,0.00,0.06,15.50,2.50,41.50,53.650871,9.698426,7.10,0.44,12,3.930,0,-9,-5,7,3
235174,-0.00,-0.00,1.00,0.18,0.06,0.06,14.50,-2.50,43.50,53.650871,9.698426,7.10,0.44,12,3.960,0,10,-5,7,3
235274,-0.00,-0.00,1.00,-0.24,0.00,0.06,16.50,-0.50,43.50,53.650871,9.698426,7.10,0.44,12,3.930,0,2,-5,7,3
235374,-0.00,0.00,1.00,-0.12,0.06,0.06,16.50,0.50,46.50,53.650871,9.698426,7.10,0.44,12,3.880,0,-2,-5,7,3
235475,-0.00,-0.01,1.00,-0.18,0.00,0.12,15.50,-0.50,44.50,53.650871,9.698426,7.10,0.44,12,3.900,0,3,-5,7,3
235575,-0.00,0.00,1.00,-0.06,0.00,0.06,15.50,-0.50,40.50,53.650871,9.698426,7.10,0.44,12,3.940,0,1,-5,7,3
235677,-0.00,-0.01,1.00,-0.12,0.00,0.12,15.50,-0.50,44.50,53.650871,9.698426,7.10,0.44,12,3.950,0,3,-5,7,3
235777,-0.00,0.00,1.00,-0.18,0.06,0.00,14.50,-0.50,43.50,53.650871,9.698426,7.10,0.44,12,3.960,0,1,-5,7,3
235910,-0.00,-0.00,1.00,-0.06,-0.06,-0.06,15.50,-0.50,44.50,53.650871,9.698426,7.10,0.44,12,3.930,0,2,-5,7,3
236010,-0.00,-0.00,1.00,-0.12,0.06,0.12,16.50,-0.50,40.50,53.650871,9.698426,7.10,0.44,12,3.880,0,2,-5,7,3
236110,-0.00,-0.00,1.00,-0.06,0.00,0.06,12.50,-2.50,40.50,53.650871,9.698426,7.10,0.44,12,3.920,0,11,-5,7,3
236210,-0.00,-0.00,1.00,-0.12,0.00,0.06,16.50,-0.50,44.50,53.650871,9.698426,7.10,0.44,12,3.890,0,2,-5,7,3
236310,-0.00,0.00,1.00,-0.12,0.06,0.12,16.50,0.50,41.50,53.650871,9.698426,7.10,0.44,12,3.790,0,-2,-5,7,3
236410,-0.00,-0.01,1.00,0.00,0.00,0.12,14.50,-1.50,43.50,53.650871,9.698426,7.10,0.22,12,3.890,0,7,-5,7,3
236510,-0.00,-0.00,1.00,-0.12,0.06,0.06,14.50,-0.50,43.50,53.650871,9.698426,7.10,0.28,12,3.970,0,2,-5,7,3
236610,0.00,-0.00,1.00,0.00,0.06,0.43,15.50,-2.50,43.50,53.650871,9.698426,7.10,0.09,12,3.920,0,9,-5,7,3
236710,0.00,-0.00,1.00,0.00,0.06,-0.06,15.50,-1.50,39.50,53.650871,9.698426,7.10,0.13,12,3.900,0,5,-5,7,3
236810,-0.00,-0.00,1.00,0.06,0.12,0.06,15.50,-0.50,45.50,53.650871,9.698426,7.10,0.15,12,3.880,0,2,-5,7,3
236910,0.00,-0.01,1.00,-0.24,0.12,-0.18,15.50,-2.50,41.50,53.650871,9.698426,7.10,0.19,12,3.710,0,9,-5,7,3
237010,-0.00,0.00,1.00,-0.31,0.06,0.12,15.50,-1.50,42.50,53.650871,9.698426,7.10,0.19,12,3.920,0,5,-5,7,3
237110,-0.00,-0.00,1.00,-0.06,0.00,0.24,13.50,-0.50,42.50,53.650871,9.698426,7.10,0.41,12,3.890,0,2,-5,7,3
237210,-0.00,-0.01,1.00,0.00,0.00,0.12,16.50,-0.50,43.50,53.650871,9.698425,7.10,0.50,12,3.880,0,2,-5,7,3
237310,-0.01,-0.01,1.00,-0.31,0.12,-0.06,13.50,0.50,42.50,53.650871,9.698425,7.10,0.06,12,3.960,0,0,-5,7,3
237410,0.00,0.01,1.00,0.00,0.06,0.12,15.50,-3.50,38.50,53.650871,9.698425,7.10,0.28,12,3.950,0,11,-5,7,3
237511,-0.00,-0.01,1.00,0.12,-0.06,0.24,13.50,-0.50,41.50,53.650871,9.698425,7.10,0.56,12,3.960,0,4,-5,7,3
237611,-0.00,0.00,1.00,-0.12,0.00,0.12,18.50,-2.50,43.50,53.650871,9.698425,7.00,0.56,12,4.040,0,7,-5,7,3
237711,-0.00,0.00,1.00,0.00,0.12,0.00,16.50,-2.50,45.50,53.650871,9.698425,7.10,0.56,12,3.940,0,8,-5,7,3
237820,-0.00,-0.01,1.00,-0.12,-0.06,0.06,12.50,-1.50,40.50,53.650871,9.698425,7.10,0.20,12,3.940,0,8,-5,7,3
237920,0.00,0.00,1.00,-0.12,0.06,0.12,17.50,-0.50,42.50,53.650871,9.698425,7.10,0.46,12,3.930,0,1,-5,7,3
238020,0.00,-0.01,1.00,-0.06,0.12,0.00,16.50,-0.50,44.50,53.650871,9.698425,7.10,0.15,12,3.930,0,2,-5,7,3
238136,-0.00,-0.00,1.00,-0.12,-0.06,0.00,18.50,-1.50,44.50,53.650871,9.698425,7.10,0.50,12,3.920,0,4,-5,7,3
238236,-0.00,0.00,1.00,0.06,0.18,0.00,15.50,-0.50,41.50,53.650871,9.698425,7.10,0.50,12,3.800,0,1,-5,7,3
238336,-0.00,-0.01,1.00,-0.06,0.00,0.18,15.50,-2.50,42.50,53.650871,9.698425,7.10,0.50,12,3.890,0,10,-5,7,3
238436,-0.00,0.00,1.00,-0.12,0.00,0.12,14.50,0.50,44.50,53.650871,9.698425,7.10,0.50,12,3.920,0,-2,-5,7,3
238536,-0.00,-0.01,1.00,-0.12,0.00,0.00,18.50,0.50,40.50,53.650871,9.698425,7.10,0.50,12,3.940,0,0,-5,7,3
238636,0.00,0.00,1.00,-0.12,-0.06,0.18,14.50,-2.50,39.50,53.650871,9.698425,7.10,0.50,12,3.960,0,9,-5,7,3
238738,0.00,-0.00,1.00,0.00,0.06,-0.06,15.50,-2.50,43.50,53.650871,9.698425,7.10,0.50,12,3.840,0,9,-5,7,3
238840,0.01,0.00,1.00,-0.24,0.06,0.73,14.50,-0.50,38.50,53.650871,9.698425,7.10,0.50,12,3.930,0,1,-5,7,3
238940,0.00,-0.01,1.01,0.43,0.00,-0.67,16.50,-2.50,37.50,53.650871,9.698425,7.10,0.50,12,3.800,0,9,-5,7,3
239040,0.03,-0.02,1.02,-0.24,0.24,0.49,13.50,-2.50,45.50,53.650871,9.698425,7.10,0.50,12,3.721,1,12,-5,7,3
239142,0.02,0.01,1.01,-0.37,-0.18,0.73,15.50,-2.50,39.50,53.650871,9.698425,7.10,0.50,12,3.810,1,7,-5,7,3
239255,0.02,-0.00,1.00,0.31,0.00,0.24,15.50,1.50,43.50,53.650871,9.698425,7.10,0.50,12,3.910,1,-5,-5,7,3
239355,0.00,-0.01,1.02,0.00,0.12,0.24,14.50,-0.50,40.50,53.650871,9.698425,7.10,0.50,12,3.890,0,3,-5,7,3
239455,-0.02,0.01,1.01,-0.37,0.24,-0.06,16.50,-2.50,40.50,53.650871,9.698425,7.10,0.50,12,3.820,-1,6,-5,7,3
239555,0.01,-0.03,1.02,-0.73,0.06,-0.06,15.50,-0.50,37.50,53.650871,9.698425,7.10,0.50,12,3.911,0,5,-5,7,3
239655,0.01,-0.03,1.02,-1.34,0.00,1.04,13.50,-0.50,43.50,53.650871,9.698425,7.10,0.50,12,3.861,0,7,-5,7,3
239756,-0.02,0.09,0.99,-3.23,-0.61,7.81,16.50,-1.50,45.50,53.650871,9.698425,7.10,0.50,12,3.94-5,-1,-9,-5,7,3
239864,0.00,-0.03,1.01,2.93,0.73,-1.95,16.50,-3.50,40.50,53.650871,9.698425,7.10,0.50,12,3.951,0,15,-5,7,3
239964,0.00,-0.04,0.98,0.73,-0.31,-0.79,16.50,-0.50,44.50,53.650871,9.698425,7.10,0.50,12,3.962,0,8,-5,7,3
240064,0.01,0.04,0.97,-2.20,-0.24,-0.31,16.50,-0.50,43.50,53.650871,9.698425,7.10,0.50,12,3.94-2,0,-4,-5,7,3
240164,0.00,0.00,0.96,0.61,0.37,-0.06,16.50,-2.50,46.50,53.650871,9.698425,7.10,0.50,12,3.880,0,8,-5,7,3
240264,0.02,0.00,0.96,2.75,-0.67,-0.31,13.50,-2.50,41.50,53.650871,9.698425,7.10,0.50,12,3.950,0,9,-5,7,3
240364,0.02,-0.01,0.98,-1.28,-0.12,-0.79,16.50,-1.50,42.50,53.650871,9.698425,7.10,0.50,12,3.930,0,6,-5,7,3
240464,0.00,0.01,0.97,-2.01,0.73,-0.67,15.50,-1.50,42.50,53.650871,9.698425,7.10,0.50,12,3.940,0,4,-5,7,3
240564,0.00,-0.01,0.97,-2.01,-0.37,0.85,16.50,-2.50,42.50,53.650871,9.698425,7.10,0.50,12,3.910,0,9,-5,7,3
240664,0.01,0.00,0.96,-2.44,0.18,0.31,15.50,0.50,40.50,53.650871,9.698425,7.10,0.50,12,3.790,0,-2,-5,7,3
240764,0.00,0.01,0.96,0.37,0.37,-0.37,15.50,-1.50,43.50,53.650871,9.698425,7.10,0.50,12,3.950,0,3,-5,7,3
240864,-0.01,-0.01,0.99,0.49,-0.55,0.79,13.50,-2.50,39.50,53.650871,9.698425,7.10,0.50,12,3.940,0,11,-5,7,3
240964,-0.01,-0.00,0.99,-0.37,-0.12,0.55,16.50,-0.50,47.50,53.650871,9.698425,7.10,0.50,12,3.940,0,2,-5,7,3
241064,-0.02,-0.01,0.98,-0.31,0.37,1.04,14.50,1.50,47.50,53.650871,9.698425,7.10,0.50,12,3.980,0,-3,-5,7,3
241164,-0.01,0.01,0.98,-0.43,-0.24,-0.49,15.50,-2.50,45.50,53.650871,9.698425,7.10,0.50,12,3.940,0,8,-5,7,3
241264,-0.00,-0.00,0.99,0.37,0.00,0.12,14.50,-0.50,42.50,53.650871,9.698425,7.10,0.50,12,3.940,0,2,-5,7,3
241364,-0.01,-0.01,1.00,0.12,0.31,-0.18,14.50,0.50,46.50,53.650871,9.698425,7.10,0.50,12,3.940,0,0,-5,7,3
241464,-0.01,-0.01,1.00,-0.18,-0.18,-0.55,15.50,-1.50,45.50,53.650871,9.698425,7.10,0.50,12,3.510,0,6,-5,7,3
241565,-0.00,0.00,0.99,0.00,0.18,-0.12,15.50,-2.50,44.50,53.650871,9.698425,7.10,0.50,12,3.980,0,8,-5,7,3
241665,-0.01,-0.00,1.00,0.43,0.24,-0.49,15.50,-2.50,46.50,53.650871,9.698425,7.10,0.50,12,3.940,0,9,-5,7,3
241765,-0.00,-0.01,1.00,0.00,-0.12,-0.49,14.50,-0.50,44.50,53.650871,9.698425,7.10,0.50,12,3.970,0,3,-5,7,3
241882,-0.00,0.00,1.03,0.43,0.06,0.37,16.50,2.50,46.50,53.650871,9.698425,7.10,0.50,12,3.930,0,-8,-5,7,3
241982,-0.01,-0.00,1.01,-0.31,0.00,0.24,16.50,0.50,41.50,53.650871,9.698425,7.10,0.50,12,3.940,0,-1,-5,7,3
242082,-0.00,-0.00,0.99,-0.49,-0.12,-0.06,15.50,-0.50,49.50,53.650871,9.698425,7.10,0.50,12,3.970,0,2,-5,7,3
242182,-0.00,0.01,0.99,0.06,0.12,0.06,16.50,-3.50,44.50,53.650871,9.698425,7.10,0.50,12,3.940,0,11,-5,7,3
242282,-0.00,-0.00,1.00,0.00,0.06,0.18,13.50,-0.50,39.50,53.650871,9.698425,7.10,0.50,12,3.940,0,2,-5,7,3
242385,0.00,-0.00,1.00,-0.06,-0.06,0.06,14.50,-1.50,43.50,53.650871,9.698425,7.10,0.50,12,3.970,0,6,-5,7,3
242485,-0.00,-0.00,1.00,-0.24,0.12,0.00,16.50,0.50,42.50,53.650871,9.698425,7.10,0.50,12,3.940,0,-1,-5,7,3
242585,-0.00,-0.00,1.00,-0.12,0.00,0.06,15.50,-2.50,48.50,53.650871,9.698425,7.10,0.50,12,3.910,0,9,-5,7,3
242685,-0.00,-0.00,1.00,-0.06,0.00,0.06,15.50,-1.50,43.50,53.650871,9.698425,7.10,0.50,12,3.940,0,5,-5,7,3
242785,-0.00,-0.00,1.00,-0.12,0.12,0.06,13.50,-0.50,39.50,53.650871,9.698425,7.10,0.50,12,3.920,0,2,-5,7,3
242886,-0.01,-0.01,1.00,-0.06,-0.06,0.12,14.50,0.50,42.50,53.650871,9.698425,7.10,0.50,12,3.810,0,0,-5,7,3
242987,-0.00,0.00,1.00,-0.18,0.06,-0.06,14.50,-2.50,42.50,53.650871,9.698425,7.10,0.50,12,3.960,0,9,-5,7,3
243087,-0.00,-0.00,1.00,-0.06,0.12,0.18,15.50,2.50,45.50,53.650871,9.698424,7.00,0.11,12,3.760,0,-8,-5,7,3
243187,0.01,-0.01,1.00,-0.37,-0.06,0.73,16.50,-0.50,46.50,53.650871,9.698424,7.00,0.11,12,3.980,0,2,-5,7,3
243287,-0.01,0.00,1.00,-0.12,-0.18,0.67,15.50,-0.50,43.50,53.650871,9.698424,7.00,0.11,12,4.040,0,1,-5,7,3
243387,-0.02,-0.00,1.00,-0.06,0.00,0.67,16.50,-1.50,50.50,53.650871,9.698424,7.00,0.11,12,3.970,-1,5,-5,7,3
243487,0.01,-0.01,1.01,-0.18,0.00,-0.06,15.50,0.50,48.50,53.650871,9.698424,7.00,0.11,12,4.010,0,0,-5,7,3
243587,0.01,0.01,1.00,-0.18,0.00,0.00,16.50,0.50,46.50,53.650871,9.698424,7.00,0.11,12,3.980,0,-2,-5,7,3
243696,0.00,-0.00,1.00,-0.06,0.00,0.00,15.50,-1.50,45.50,53.650871,9.698424,7.00,0.11,12,3.920,0,5,-5,7,3
243796,-0.01,-0.01,1.00,-0.12,0.12,-1.04,15.50,-2.50,40.50,53.650871,9.698424,7.00,0.02,12,3.940,0,10,-5,7,3
243910,-0.00,-0.00,1.00,-0.31,0.18,-0.92,15.50,-2.50,45.50,53.650871,9.698424,7.00,0.06,12,3.940,0,9,-5,7,3
244010,-0.00,0.00,1.00,-0.24,-0.06,0.31,12.50,-0.50,43.50,53.650871,9.698424,7.00,0.06,12,3.980,0,1,-5,7,3
244112,-0.00,-0.00,1.00,-0.12,-0.06,-0.12,15.50,-0.50,44.50,53.650871,9.698424,7.00,0.06,12,3.940,0,2,-5,7,3
244212,-0.00,-0.00,1.00,-0.12,0.06,0.06,13.50,-1.50,41.50,53.650871,9.698424,7.00,0.07,12,3.930,0,6,-5,7,3
244312,-0.00,-0.00,1.00,-0.12,0.00,0.18,16.50,2.50,38.50,53.650871,9.698423,7.00,0.07,12,3.970,0,-8,-5,7,3
244412,0.00,0.00,1.00,-0.06,-0.06,0.00,15.50,-0.50,41.50,53.650871,9.698423,7.00,0.09,12,3.990,0,1,-5,7,3
244512,0.00,-0.01,1.00,0.00,0.00,0.12,15.50,1.50,42.50,53.650871,9.698423,7.00,0.11,12,3.920,0,-4,-5,7,3
244612,0.00,0.00,1.00,-0.24,0.00,0.06,14.50,-0.50,43.50,53.650871,9.698423,7.00,0.07,12,3.940,0,1,-5,7,3
244712,0.00,-0.00,1.00,0.12,0.00,0.12,16.50,1.50,49.50,53.650871,9.698423,7.00,0.09,12,3.940,0,-4,-5,7,3
244812,0.00,-0.00,1.00,-0.06,0.06,0.12,17.50,-0.50,46.50,53.650871,9.698423,7.00,0.02,12,3.960,0,2,-5,7,3
244912,-0.00,0.00,1.00,0.00,-0.06,0.24,15.50,-2.50,46.50,53.650871,9.698423,7.00,0.07,12,4.000,0,9,-5,7,3
245012,0.00,-0.00,1.00,0.18,0.00,0.98,16.50,-2.50,44.50,53.650871,9.698423,7.00,0.07,12,3.940,0,8,-5,7,3
245112,-0.01,-0.01,1.01,-0.06,0.06,-0.06,14.50,-0.50,41.50,53.650871,9.698423,6.90,0.07,12,3.930,0,3,-5,7,3
245212,-0.01,-0.00,1.00,-0.43,0.00,-0.18,15.50,0.50,45.50,53.650871,9.698423,6.90,0.20,12,3.950,0,-1,-5,7,3
245314,-0.00,0.00,1.00,-0.06,0.00,0.06,17.50,-0.50,43.50,53.650871,9.698423,6.90,0.06,12,3.940,0,1,-5,7,3
245414,-0.01,-0.01,1.00,-0.12,0.00,0.00,13.50,1.50,40.50,53.650871,9.698423,6.90,0.13,12,3.910,0,-5,-5,7,3
245514,-0.00,0.00,1.00,-0.06,0.06,0.12,15.50,0.50,45.50,53.650871,9.698423,6.90,0.07,12,3.870,0,-2,-5,7,3
245614,0.00,-0.01,1.00,-0.31,0.06,0.06,16.50,-1.50,39.50,53.650871,9.698423,6.90,0.11,12,3.890,0,6,-5,7,3
245714,0.00,-0.00,1.00,-0.31,0.06,0.37,13.50,-3.50,46.50,53.650871,9.698423,6.90,0.20,12,3.950,0,15,-5,7,3
245814,0.00,0.00,1.00,0.00,-0.12,0.98,15.50,-0.50,42.50,53.650871,9.698423,6.90,0.15,12,3.900,0,1,-5,7,3
245981,-0.00,-0.00,1.00,-0.24,0.00,0.37,15.50,0.50,46.50,53.650871,9.698423,6.90,0.33,12,3.910,0,-1,-5,7,3
246081,0.01,0.00,1.00,-0.06,0.06,0.85,15.50,-0.50,40.50,53.650871,9.698423,6.80,0.30,12,3.880,0,1,-5,7,3
246181,-0.01,-0.00,1.00,0.00,0.06,-0.43,14.50,0.50,44.50,53.650871,9.698423,6.80,0.30,12,3.880,0,-1,-5,7,3
246281,-0.01,-0.01,1.00,-0.24,0.12,-0.61,13.50,-1.50,44.50,53.650871,9.698423,6.80,0.30,12,3.950,0,8,-5,7,3
246381,-0.00,0.01,1.00,-0.31,0.18,-0.12,16.50,0.50,42.50,53.650871,9.698423,6.80,0.30,12,3.840,0,-2,-5,7,3
246481,0.00,-0.01,1.00,-0.18,-0.12,0.55,16.50,-1.50,38.50,53.650871,9.698423,6.80,0.30,12,3.920,0,6,-5,7,3
246581,0.00,-0.01,1.01,-0.37,-0.18,0.49,16.50,0.50,45.50,53.650871,9.698423,6.80,0.30,12,3.940,0,0,-5,7,3
246681,-0.01,0.01,1.00,-0.37,0.12,0.37,16.50,-0.50,45.50,53.650871,9.698423,6.80,0.30,12,3.840,0,0,-5,7,3
246781,-0.01,-0.00,1.00,0.61,-0.12,0.43,14.50,-0.50,41.50,53.650871,9.698423,6.80,0.30,12,3.940,0,2,-5,7,3
246883,-0.01,-0.02,1.01,-0.79,-0.06,0.43,15.50,-1.50,45.50,53.650871,9.698423,6.80,0.30,12,3.930,0,8,-5,7,3
246983,-0.00,0.00,1.01,-0.37,0.31,-0.12,15.50,-1.50,45.50,53.650871,9.698423,6.80,0.30,12,3.920,0,4,-5,7,3
247083,-0.01,0.01,1.01,0.00,-0.06,0.18,14.50,0.50,40.50,53.650871,9.698423,6.80,0.13,12,4.000,0,-3,-5,7,3
247183,-0.01,-0.01,1.00,-0.06,-0.12,-0.37,13.50,-3.50,47.50,53.650871,9.698423,6.80,0.13,12,4.040,0,16,-5,7,3
247283,0.01,0.00,1.00,-0.24,0.37,-0.43,13.50,-3.50,47.50,53.650871,9.698423,6.80,0.13,12,3.940,0,13,-5,7,3
247384,-0.00,-0.01,1.06,0.37,-0.43,0.24,15.50,-1.50,42.50,53.650871,9.698423,6.80,0.13,12,3.900,0,6,-5,7,3
247484,0.02,-0.01,1.15,0.73,0.00,0.00,15.50,-1.50,42.50,53.650871,9.698423,6.80,0.13,12,3.940,0,6,-5,7,3
247585,-0.00,-0.00,1.00,-2.32,1.04,-0.31,15.50,0.50,43.50,53.650871,9.698423,6.80,0.13,12,3.930,0,-1,-5,7,3
247685,-0.01,0.00,0.97,-0.18,-0.43,-0.37,13.50,2.50,40.50,53.650871,9.698423,6.80,0.13,12,3.910,0,-11,-5,7,3
247785,-0.01,0.01,1.02,1.89,-0.37,0.49,14.50,-1.50,40.50,53.650871,9.698423,6.80,0.13,12,3.830,0,4,-5,7,3
247885,-0.01,-0.02,1.05,0.43,0.43,0.43,15.50,0.50,48.50,53.650871,9.698422,6.80,0.15,12,3.941,0,1,-5,7,3
247989,-0.02,0.00,1.02,-1.04,-0.24,0.06,16.50,2.50,42.50,53.650871,9.698422,6.80,0.15,12,3.960,-1,-9,-5,7,3
248201,0.02,0.00,1.01,-0.18,0.12,0.37,15.50,-1.50,45.50,53.650871,9.698422,6.80,0.15,12,3.920,1,4,-5,7,3
248301,0.01,-0.01,0.99,-0.18,-0.31,0.31,14.50,1.50,38.50,53.650871,9.698422,6.80,0.15,12,3.950,0,-4,-5,7,3
248401,-0.01,-0.00,0.99,-0.24,0.00,0.61,16.50,-2.50,45.50,53.650871,9.698422,6.80,0.07,12,3.940,0,8,-5,7,3
248501,-0.01,0.00,0.99,-0.06,0.18,0.61,13.50,-1.50,38.50,53.650871,9.698422,6.80,0.07,12,3.910,0,6,-5,7,3
248601,0.00,0.00,0.99,-0.06,-0.12,0.06,17.50,0.50,40.50,53.650871,9.698422,6.80,0.07,12,3.740,0,-1,-5,7,3
248701,0.00,-0.01,1.00,0.06,0.00,0.06,15.50,-2.50,38.50,53.650871,9.698422,6.80,0.11,12,3.890,0,9,-5,7,3
248801,-0.01,0.00,1.00,-0.31,0.12,0.24,15.50,-2.50,47.50,53.650871,9.698422,6.80,0.15,12,3.960,0,8,-5,7,3
248901,-0.01,-0.01,1.00,-0.49,-0.12,0.00,17.50,-0.50,43.50,53.650871,9.698422,6.80,0.17,12,3.900,0,2,-5,7,3
249001,-0.00,0.00,0.99,-0.31,0.12,0.00,15.50,2.50,37.50,53.650871,9.698422,6.80,0.17,12,3.740,0,-9,-5,7,3
249101,-0.00,0.00,1.00,0.12,0.12,-0.37,15.50,-0.50,43.50,53.650871,9.698422,6.70,0.15,12,3.940,0,1,-5,7,3
249201,0.00,-0.00,1.00,-0.06,0.00,-0.06,16.50,-3.50,35.50,53.650871,9.698422,6.70,0.11,12,3.940,0,12,-5,7,3
249301,-0.00,0.00,1.00,-0.06,0.00,0.18,16.50,-2.50,42.50,53.650871,9.698422,6.70,0.06,12,3.840,0,8,-5,7,3
249402,-0.00,-0.01,1.00,0.12,0.12,0.06,15.50,-1.50,37.50,53.650871,9.698422,6.70,0.06,12,3.920,0,6,-5,7,3
249502,-0.00,-0.00,1.00,-0.12,-0.06,0.18,14.50,-1.50,46.50,53.650871,9.698422,6.70,0.06,12,3.940,0,6,-5,7,3
249602,-0.00,-0.00,1.00,0.00,0.06,0.31,16.50,-0.50,43.50,53.650871,9.698422,6.70,0.07,12,3.930,0,2,-5,7,3
249702,0.00,0.00,1.00,-0.31,0.00,0.31,15.50,-0.50,42.50,53.650871,9.698422,6.60,0.02,12,3.880,0,1,-5,7,3
249802,0.00,-0.00,1.00,0.18,-0.12,0.37,15.50,1.50,43.50,53.650871,9.698421,6.60,0.04,12,3.920,0,-5,-5,7,3
249902,0.00,-0.01,1.00,0.00,0.06,0.12,15.50,-0.50,40.50,53.650871,9.698421,6.60,0.06,12,3.910,0,2,-5,7,3
250002,-0.01,0.01,1.00,0.00,0.06,0.24,15.50,-0.50,42.50,53.650871,9.698421,6.60,0.06,12,3.950,0,0,-5,7,3
250102,-0.03,-0.01,1.00,0.06,-0.18,0.67,15.50,-0.50,40.50,53.650871,9.698421,6.60,0.06,12,3.940,-1,2,-5,7,3
250202,-0.03,0.01,0.99,-0.31,-0.12,1.77,16.50,-0.50,40.50,53.650871,9.698421,6.60,0.06,12,3.930,-1,0,-5,7,3
250302,0.00,-0.01,1.00,-0.06,0.06,0.79,13.50,-2.50,43.50,53.650871,9.698421,6.60,0.04,12,3.950,0,12,-5,7,3
250406,-0.01,-0.00,1.01,-0.06,0.06,-0.67,16.50,-1.50,44.50,53.650871,9.698421,6.60,0.15,12,3.930,0,5,-5,7,3
250506,-0.00,-0.01,1.00,-0.12,0.12,0.06,17.50,-2.50,43.50,53.650871,9.698421,6.60,0.04,12,3.910,0,8,-5,7,3
250607,0.01,-0.00,1.00,-0.31,-0.06,0.24,14.50,-2.50,45.50,53.650871,9.698421,6.60,0.04,12,3.930,0,9,-5,7,3
250707,0.01,-0.00,1.00,0.24,0.00,0.55,13.50,0.50,43.50,53.650871,9.698421,6.60,0.09,12,3.900,0,-1,-5,7,3
250807,0.00,-0.01,1.01,-0.31,0.00,0.18,15.50,-1.50,43.50,53.650871,9.698421,6.60,0.06,12,3.940,0,6,-5,7,3
250907,-0.00,0.01,1.00,-0.43,0.06,-0.06,16.50,-0.50,43.50,53.650871,9.698421,6.60,0.06,12,3.960,0,0,-5,7,3
251011,-0.00,-0.00,0.99,0.61,0.00,0.06,16.50,0.50,46.50,53.650871,9.698421,6.60,0.06,12,3.950,0,-1,-5,7,3
251111,-0.00,-0.01,1.00,0.24,0.00,0.06,15.50,-1.50,46.50,53.650871,9.698421,6.60,0.07,12,3.940,0,7,-5,7,3
251211,-0.00,0.01,1.00,0.12,0.06,0.31,15.50,0.50,43.50,53.650871,9.698421,6.50,0.13,12,3.960,0,-3,-5,7,3
251311,-0.01,-0.00,1.00,-0.18,0.12,-0.31,15.50,-3.50,40.50,53.650871,9.698421,6.50,0.04,12,3.820,0,13,-5,7,3
251413,-0.02,-0.00,1.00,0.00,-0.06,-0.31,17.50,-0.50,37.50,53.650871,9.698421,6.50,0.04,12,3.930,0,1,-5,7,3
251521,-0.02,-0.00,1.00,-0.24,0.18,-0.18,15.50,-1.50,42.50,53.650871,9.698421,6.50,0.06,12,3.880,-1,6,-5,7,3
251621,-0.01,0.00,1.00,0.18,-0.12,0.37,13.50,-1.50,46.50,53.650871,9.698421,6.50,0.06,12,4.000,0,6,-5,7,3
251721,-0.00,-0.01,1.00,0.31,0.06,-0.24,14.50,0.50,45.50,53.650871,9.698421,6.50,0.06,12,3.960,0,0,-5,7,3
251821,-0.01,-0.00,1.00,0.12,0.31,-0.98,13.50,-0.50,44.50,53.650871,9.698421,6.50,0.06,12,3.940,0,3,-5,7,3
251921,0.00,-0.00,1.01,-0.06,0.06,-0.67,14.50,0.50,43.50,53.650871,9.698421,6.50,0.11,12,3.840,0,-1,-5,7,3
252022,0.00,-0.00,1.00,-0.43,0.00,-0.55,15.50,-0.50,38.50,53.650871,9.698421,6.50,0.11,12,3.850,0,2,-5,7,3
252122,-0.00,0.00,1.00,-0.37,0.43,-1.04,15.50,0.50,40.50,53.650875,9.698421,6.50,0.06,12,3.950,0,-2,-5,7,3
252222,0.03,0.00,1.00,0.18,0.06,0.18,15.50,-0.50,43.50,53.650875,9.698421,6.50,0.06,12,3.960,1,1,-5,7,3
252322,-0.00,0.00,1.00,0.06,-0.61,1.46,15.50,-2.50,42.50,53.650875,9.698421,6.50,0.02,12,3.910,0,9,-5,7,3
252422,-0.00,-0.01,1.00,-0.18,0.61,-0.43,15.50,-2.50,45.50,53.650875,9.698421,6.50,0.02,12,3.930,0,11,-5,7,3
252522,-0.01,0.00,0.99,-0.55,0.24,-1.34,15.50,-0.50,42.50,53.650875,9.698421,6.50,0.02,12,3.930,0,1,-5,7,3
252622,0.02,-0.00,1.00,-0.24,-0.12,-0.31,16.50,-2.50,45.50,53.650875,9.698421,6.40,0.02,12,3.970,1,8,-5,7,3
252722,-0.02,0.02,1.01,0.92,-0.18,-1.40,15.50,0.50,41.50,53.650875,9.698421,6.50,0.02,12,3.89-1,-1,-4,-5,7,3
252822,-0.00,-0.03,1.00,0.00,0.18,-0.85,16.50,-1.50,43.50,53.650875,9.698421,6.50,0.20,12,3.961,0,9,-5,7,3
252922,-0.02,0.04,0.98,-0.85,-0.12,1.59,16.50,-0.50,45.50,53.650875,9.698421,6.40,0.30,12,3.95-2,-1,-5,-5,7,3
253023,-0.01,0.02,1.00,1.40,-0.24,1.89,14.50,-1.50,42.50,53.650875,9.698421,6.40,0.30,12,3.890,0,3,-5,7,3
253123,0.00,-0.06,1.00,-0.06,0.00,-0.61,17.50,0.50,48.50,53.650875,9.698421,6.40,0.30,12,3.903,0,8,-5,7,3
253223,0.01,0.01,0.99,-2.20,0.24,0.06,15.50,-0.50,42.50,53.650875,9.698421,6.40,0.07,12,3.850,0,0,-5,7,3
253323,-0.02,0.05,1.00,0.92,-0.12,1.34,14.50,1.50,43.50,53.650875,9.698421,6.40,0.26,12,3.90-2,-1,-14,-5,7,3
253423,-0.00,-0.06,1.01,0.37,-0.55,1.65,14.50,-1.50,43.50,53.650875,9.698421,6.40,0.09,12,3.903,0,15,-5,7,3
253523,0.00,0.00,0.99,-1.10,0.24,1.16,13.50,-0.50,48.50,53.650875,9.698421,6.40,0.09,12,3.940,0,1,-5,7,3
253623,0.01,0.01,0.99,0.31,0.49,0.98,16.50,-4.50,45.50,53.650875,9.698421,6.40,0.09,12,3.940,0,13,-5,7,3
253723,0.00,-0.02,1.00,0.31,-0.49,1.77,16.50,0.50,40.50,53.650875,9.698421,6.40,0.09,12,3.920,0,0,-5,7,3
253823,-0.01,0.03,0.99,2.50,0.18,-0.37,15.50,-1.50,44.50,53.650875,9.698421,6.40,0.11,12,3.96-1,0,0,-5,7,3
253923,-0.01,-0.01,0.99,4.58,0.12,2.20,16.50,-0.50,37.50,53.650875,9.698421,6.40,0.02,12,3.940,0,3,-5,7,3
254032,-0.02,-0.05,0.99,-0.73,-0.61,-0.18,15.50,1.50,45.50,53.650875,9.698421,6.40,0.02,12,3.913,-1,3,-5,7,3
254132,-0.01,0.01,0.99,-1.89,0.31,-0.98,15.50,2.50,47.50,53.650875,9.698421,6.40,0.13,12,3.950,0,-10,-5,7,3
254232,0.02,-0.03,1.00,-2.69,0.37,-1.53,16.50,-2.50,45.50,53.650875,9.698421,6.40,0.13,12,3.941,0,12,-5,7,3
254332,-0.02,-0.01,0.98,-3.17,-0.92,-1.40,15.50,-0.50,43.50,53.650875,9.698421,6.40,0.13,12,3.940,-1,3,-5,7,3
254432,0.01,0.04,1.01,-0.73,0.85,1.46,15.50,-0.50,46.50,53.650875,9.698421,6.40,0.13,12,3.94-2,0,-4,-5,7,3
254532,-0.01,-0.02,1.01,-0.06,0.06,-0.43,15.50,-0.50,48.50,53.650875,9.698421,6.40,0.13,12,3.931,0,5,-5,7,3
254632,-0.01,0.01,1.00,-0.06,-0.92,-0.92,15.50,-2.50,45.50,53.650875,9.698421,6.40,0.13,12,3.990,0,7,-5,7,3
254732,-0.01,0.01,1.00,0.92,0.67,-1.16,15.50,0.50,45.50,53.650875,9.698421,6.40,0.13,12,3.880,0,-3,-5,7,3
254832,0.01,-0.03,1.01,1.10,-0.12,1.83,16.50,-1.50,46.50,53.650875,9.698421,6.40,0.13,12,3.911,0,10,-5,7,3
254932,0.01,-0.02,1.01,-0.98,-1.04,3.30,16.50,-2.50,44.50,53.650875,9.698421,6.40,0.02,12,3.920,0,10,-5,7,3
255034,0.01,0.03,1.01,0.18,1.34,-1.77,15.50,0.50,47.50,53.650875,9.698421,6.40,0.02,12,3.91-1,0,-7,-5,7,3
255134,-0.03,-0.02,1.01,0.43,-0.24,0.61,16.50,-1.50,44.50,53.650875,9.698421,6.40,0.02,12,3.951,-1,9,-5,7,3
255234,0.01,-0.00,1.00,-0.49,-0.79,-0.37,16.50,1.50,46.50,53.650875,9.698421,6.40,0.02,12,3.960,0,-4,-5,7,3
255334,0.00,-0.01,1.00,-0.31,1.28,-0.18,16.50,4.50,48.50,53.650875,9.698421,6.40,0.02,12,3.900,0,-13,-5,7,3
255434,0.00,0.01,1.00,-0.18,-0.12,-0.18,15.50,2.50,56.50,53.650875,9.698421,6.40,0.02,12,3.970,0,-11,-5,7,3
255536,-0.00,-0.00,1.01,-0.06,-0.67,-0.43,16.50,1.50,48.50,53.650875,9.698421,6.40,0.02,12,3.980,0,-4,-5,7,3
255636,0.02,-0.01,1.01,-0.12,0.92,1.71,19.50,2.50,48.50,53.650875,9.698421,6.40,0.02,12,3.910,1,-6,-5,7,3
255736,0.02,-0.00,1.00,0.12,-0.18,-0.24,19.50,3.50,47.50,53.650875,9.698421,6.40,0.02,12,3.970,1,-9,-5,7,3
255836,0.00,-0.00,1.00,-1.16,-0.73,0.06,15.50,0.50,46.50,53.650875,9.698421,6.40,0.02,12,3.970,0,-1,-5,7,3
255938,0.01,-0.01,0.99,-0.85,0.37,1.53,16.50,0.50,45.50,53.650875,9.698421,6.40,0.04,12,3.880,0,0,-5,7,3
256046,0.00,-0.02,1.00,-0.92,-0.24,0.00,15.50,0.50,51.50,53.650875,9.698421,6.40,0.09,12,3.951,0,1,-5,7,3
256146,-0.02,0.01,1.00,-0.79,0.31,0.06,16.50,2.50,48.50,53.650875,9.698421,6.40,0.09,12,3.950,0,-10,-5,7,3
256246,-0.00,0.02,0.99,0.43,0.61,0.37,15.50,-1.50,47.50,53.650875,9.698421,6.40,0.09,12,3.970,0,2,-5,7,3
256346,0.01,0.02,0.98,1.22,0.00,0.12,16.50,3.50,44.50,53.650875,9.698421,6.40,0.09,12,3.98-1,0,-14,-5,7,3
256450,0.00,-0.04,1.01,1.40,-0.37,-0.49,18.50,2.50,51.50,53.650875,9.698421,6.40,0.09,12,3.982,0,-1,-5,7,3
256550,-0.01,-0.01,1.01,-1.71,0.49,2.93,16.50,0.50,47.50,53.650875,9.698421,6.40,0.09,12,3.950,0,0,-5,7,3
256650,0.00,0.01,1.01,-2.01,0.18,0.67,16.50,2.50,50.50,53.650875,9.698421,6.40,0.09,12,3.860,0,-9,-5,7,3
256750,0.02,-0.00,1.00,0.18,0.12,0.12,16.50,0.50,45.50,53.650875,9.698421,6.40,0.09,12,3.940,1,-1,-5,7,3
256850,-0.00,-0.00,1.01,0.79,0.85,0.31,16.50,1.50,49.50,53.650875,9.698421,6.40,0.09,12,3.940,0,-4,-5,7,3
256951,-0.01,0.01,1.00,0.06,0.55,-0.18,16.50,-0.50,48.50,53.650875,9.698421,6.40,0.09,12,3.810,0,0,-5,7,3
257051,-0.00,0.00,1.00,0.24,0.12,-2.01,15.50,0.50,49.50,53.650875,9.698421,6.40,0.09,12,3.970,0,-2,-5,7,3
257151,0.00,-0.02,1.00,0.37,-0.73,-0.61,16.50,0.50,45.50,53.650875,9.698421,6.40,0.09,12,3.960,0,0,-5,7,3
257253,0.01,-0.01,1.01,-2.01,-1.83,-0.18,18.50,0.50,44.50,53.650875,9.698421,6.40,0.09,12,3.930,0,0,-5,7,3
257353,0.00,0.02,1.00,-0.12,-0.06,0.12,17.50,-0.50,49.50,53.650875,9.698421,6.40,0.09,12,3.95-1,0,-1,-5,7,3
257453,-0.00,0.00,1.00,0.43,-0.06,0.31,16.50,-2.50,48.50,53.650875,9.698421,6.40,0.09,12,3.950,0,8,-5,7,3
257557,0.00,-0.02,1.01,-0.24,0.61,-0.43,15.50,2.50,51.50,53.650875,9.698421,6.40,0.09,12,3.980,0,-5,-5,7,3
257676,-0.00,-0.00,0.99,-0.37,-0.31,-0.37,18.50,1.50,50.50,53.650875,9.698421,6.40,0.09,12,3.980,0,-4,-5,7,3
257776,0.00,0.01,1.00,0.18,-0.18,0.55,16.50,2.50,46.50,53.650875,9.698421,6.40,0.09,12,3.980,0,-10,-5,7,3
257876,0.01,-0.00,1.00,-0.67,-0.12,-0.18,15.50,0.50,53.50,53.650875,9.698421,6.40,0.09,12,3.940,0,-1,-5,7,3
257976,0.00,0.00,1.00,-0.55,-0.43,-0.55,16.50,0.50,45.50,53.650875,9.698421,6.40,0.09,12,3.950,0,-2,-5,7,3
258085,0.00,-0.03,1.00,-1.10,-0.06,-1.89,16.50,0.50,49.50,53.650875,9.698421,6.50,0.04,12,3.981,0,3,-5,7,3
258203,-0.00,0.05,0.97,0.92,0.24,-0.18,17.50,0.50,51.50,53.650875,9.698421,6.50,0.04,12,3.96-3,0,-10,-5,7,3
258303,0.04,-0.03,0.99,1.16,0.12,0.24,16.50,0.50,54.50,53.650875,9.698421,6.50,0.04,12,3.981,2,2,-5,7,3
258403,-0.00,0.05,1.00,1.16,0.00,-0.24,15.50,2.50,51.50,53.650875,9.698421,6.50,0.09,12,3.97-2,0,-18,-5,7,3
258503,0.05,0.01,0.98,1.65,-0.49,9.16,17.50,2.50,46.50,53.650875,9.698421,6.50,0.09,12,3.940,2,-8,-5,7,3
258603,-0.02,-0.01,0.98,1.10,0.31,0.98,17.50,2.50,49.50,53.650875,9.698421,6.50,0.13,12,4.000,-1,-6,-5,7,3
258703,0.02,-0.02,0.98,0.24,0.49,2.14,15.50,1.50,42.50,53.650875,9.698421,6.50,0.13,12,3.940,0,-2,-5,7,3
258803,-0.01,-0.02,0.99,0.85,-0.79,11.66,17.50,1.50,46.50,53.650875,9.698421,6.50,0.09,12,3.951,0,-1,-5,7,3
258903,-0.00,0.00,0.99,1.10,0.49,1.04,16.50,0.50,48.50,53.650875,9.698421,6.50,0.24,12,3.950,0,-1,-5,7,3
259003,-0.03,0.02,0.93,0.98,3.17,0.85,16.50,1.50,49.50,53.650875,9.698421,6.50,0.24,12,3.970,-2,-9,-5,7,3
259103,-0.01,-0.01,1.01,1.34,0.31,-0.85,15.50,0.50,46.50,53.650875,9.698421,6.50,0.24,12,4.040,0,0,-6,7,3
259203,0.02,-0.03,1.00,2.32,2.50,-1.04,15.50,0.50,49.50,53.650875,9.698421,6.50,0.24,12,3.981,1,3,-5,7,3
259317,0.05,-0.02,1.00,-0.31,-2.50,-0.43,16.50,-2.50,48.50,53.650875,9.698421,6.50,0.20,12,3.961,2,10,-5,7,3
259417,0.03,-0.00,1.00,0.49,-7.32,0.00,16.50,0.50,44.50,53.650875,9.698421,6.50,0.20,12,3.940,1,-1,-5,7,3
259517,0.02,-0.02,1.00,-0.12,-3.97,-0.18,15.50,0.50,48.50,53.650875,9.698421,6.50,0.20,12,3.940,1,0,-5,7,3
259617,0.01,-0.04,1.00,-0.31,0.73,-0.12,16.50,3.50,49.50,53.650875,9.698421,6.50,0.20,12,3.972,0,-5,-5,7,3
259717,0.00,0.00,1.00,0.12,-0.24,-2.69,16.50,1.50,47.50,53.650875,9.698421,6.50,0.20,12,3.930,0,-5,-5,7,3
259819,0.01,-0.01,1.00,1.16,3.11,-0.79,15.50,2.50,48.50,53.650875,9.698421,6.50,0.24,12,3.950,0,-8,-5,7,3
259921,0.00,-0.04,1.01,0.43,0.37,-0.92,15.50,-0.50,49.50,53.650875,9.698421,6.50,0.13,12,3.842,0,8,-5,7,3
260021,0.01,-0.02,1.03,-3.85,-15.32,-0.79,16.50,3.50,46.50,53.650875,9.698421,6.50,0.13,12,3.940,0,-9,-5,7,3
260138,-0.01,-0.00,1.00,-0.43,-0.55,0.79,17.50,-1.50,47.50,53.650875,9.698421,6.50,0.13,12,3.960,0,5,-5,7,3
260239,-0.01,-0.01,1.00,-0.61,0.85,0.55,16.50,1.50,42.50,53.650875,9.698421,6.50,0.13,12,3.960,0,-4,-5,7,3
260339,-0.01,0.00,1.00,-0.37,-0.43,0.18,14.50,0.50,40.50,53.650875,9.698421,6.50,0.13,12,3.930,0,-2,-5,7,3
260439,0.00,-0.00,1.00,-0.37,-0.49,0.18,14.50,-1.50,48.50,53.650875,9.698421,6.50,0.13,12,3.930,0,6,-5,7,3
260539,0.00,-0.00,1.00,0.00,0.73,0.18,11.50,-0.50,42.50,53.650875,9.698421,6.50,0.13,12,3.950,0,2,-5,7,3
260639,-0.00,-0.02,1.00,-0.43,-0.49,0.43,13.50,-1.50,41.50,53.650875,9.698421,6.50,0.13,12,4.130,0,9,-5,7,3
260739,-0.00,-0.00,1.00,-0.55,-0.24,0.06,13.50,-1.50,40.50,53.650875,9.698421,6.50,0.13,12,3.910,0,7,-5,7,3
260839,-0.01,-0.01,1.00,-0.37,0.73,0.18,13.50,-2.50,40.50,53.650875,9.698421,6.50,0.13,12,3.920,0,11,-5,7,3
260939,0.00,-0.00,1.00,-0.43,-0.37,0.37,13.50,-1.50,37.50,53.650875,9.698421,6.50,0.09,12,3.900,0,6,-5,7,3
261040,-0.01,-0.01,1.00,-0.12,-0.37,0.06,14.50,-2.50,39.50,53.650875,9.698421,6.50,0.20,12,3.930,0,10,-5,7,3
261140,-0.00,-0.01,1.00,-0.24,0.61,0.24,15.50,-4.50,38.50,53.650875,9.698421,6.50,0.20,12,3.960,0,17,-5,7,3
261240,0.00,-0.00,1.00,-0.37,-0.24,0.12,14.50,-2.50,39.50,53.650875,9.698421,6.50,0.20,12,3.800,0,10,-5,7,3
261342,-0.00,-0.00,1.00,0.06,-0.24,0.31,18.50,-2.50,38.50,53.650875,9.698421,6.50,0.20,12,3.920,0,8,-5,7,3
261442,0.00,-0.00,1.00,-0.61,0.43,0.00,15.50,-4.50,36.50,53.650875,9.698421,6.50,0.20,12,3.900,0,16,-5,7,3
261542,-0.01,-0.01,1.00,-0.06,-0.31,0.43,18.50,-10.50,26.50,53.650875,9.698421,6.50,0.20,12,3.840,0,30,-5,7,3
261642,-0.01,-0.01,0.99,0.00,-0.12,0.49,17.50,-12.50,32.50,53.650875,9.698421,6.50,0.20,12,3.930,0,36,-5,7,3
261742,-0.00,-0.00,1.00,0.37,0.79,0.37,15.50,-19.50,31.50,53.650875,9.698421,6.50,0.20,12,3.960,0,51,-5,7,3
261844,0.01,-0.02,0.99,-0.18,0.73,-0.24,17.50,-22.50,23.50,53.650875,9.698421,6.50,0.20,12,3.941,0,52,-5,7,3
261944,-0.00,0.02,0.99,-0.67,-0.92,0.24,16.50,-22.50,27.50,53.650875,9.698421,6.50,0.20,12,3.94-1,0,53,-5,7,3
262044,0.01,-0.02,1.00,-0.31,0.00,0.31,16.50,-25.50,33.50,53.650875,9.698421,6.50,0.20,12,3.940,0,57,-5,7,3
262146,0.01,-0.00,1.00,-0.55,-0.37,0.92,19.50,-23.50,31.50,53.650875,9.698421,6.50,0.20,12,3.860,0,50,-5,7,3
262246,-0.00,0.00,0.99,0.00,0.12,0.43,18.50,-25.50,29.50,53.650875,9.698421,6.50,0.20,12,3.930,0,54,-5,7,3
262346,-0.01,-0.00,1.00,0.31,0.73,-0.18,19.50,-23.50,29.50,53.650875,9.698421,6.50,0.20,12,3.940,0,50,-5,7,3
262448,-0.00,-0.01,0.99,-0.06,-0.43,0.37,17.50,-22.50,28.50,53.650875,9.698421,6.50,0.20,12,3.960,0,52,-5,7,3
262548,0.00,-0.01,1.00,0.24,0.43,0.06,16.50,-21.50,33.50,53.650875,9.698421,6.50,0.20,12,3.890,0,52,-5,7,3
262663,0.00,0.01,1.00,0.06,0.24,0.24,16.50,-22.50,29.50,53.650875,9.698421,6.50,0.20,12,3.930,0,53,-5,7,3
262763,-0.01,-0.03,0.99,0.73,1.10,0.18,17.50,-22.50,28.50,53.650875,9.698421,6.50,0.20,12,3.941,0,53,-5,7,3
262863,-0.01,-0.01,1.00,-0.43,0.00,-0.12,14.50,-18.50,32.50,53.650875,9.698421,6.50,0.20,12,3.940,0,53,-5,7,3
262963,0.00,0.00,1.00,-0.61,0.00,-0.18,16.50,-23.50,28.50,53.650875,9.698421,6.50,0.20,12,3.920,0,54,-5,7,3
263064,-0.01,-0.01,1.01,-0.12,-0.12,0.18,16.50,-21.50,31.50,53.650875,9.698421,6.50,0.20,12,3.930,0,53,-5,7,3
263164,-0.01,0.02,0.99,0.00,-0.12,0.00,15.50,-24.50,30.50,53.650875,9.698421,6.50,0.20,12,3.93-1,0,57,-5,7,3
263264,-0.01,-0.01,1.00,0.43,0.49,0.00,14.50,-24.50,32.50,53.650875,9.698421,6.50,0.20,12,3.830,0,59,-5,7,3
263364,0.00,-0.01,0.99,0.37,-0.12,0.31,18.50,-24.50,29.50,53.650875,9.698421,6.50,0.20,12,3.950,0,53,-5,7,3
263464,0.01,-0.01,1.01,-1.34,-1.77,0.37,17.50,-26.50,31.50,53.650875,9.698421,6.50,0.20,12,3.900,0,56,-5,7,3
263564,0.00,0.00,1.00,-0.31,-0.49,0.55,15.50,-27.50,32.50,53.650875,9.698421,6.50,0.20,12,3.970,0,60,-5,7,3
263664,-0.02,-0.01,0.96,0.00,0.12,-0.24,17.50,-27.50,32.50,53.650875,9.698421,6.50,0.20,12,3.880,-1,58,-5,7,3
263764,0.02,0.02,1.01,0.85,1.10,-2.75,17.50,-29.50,31.50,53.650875,9.698421,6.50,0.20,12,3.940,1,58,-5,7,3
263865,0.01,-0.02,1.03,1.16,-0.37,-0.37,13.50,-31.50,32.50,53.650875,9.698421,6.50,0.20,12,3.821,0,66,-5,7,3
263965,-0.00,-0.03,1.01,0.24,0.12,-0.49,18.50,-30.50,28.50,53.650875,9.698421,6.50,0.20,12,3.941,0,59,-5,7,3
264065,0.00,0.00,1.00,-0.61,0.24,-0.85,16.50,-31.50,28.50,53.650875,9.698421,6.50,0.20,12,3.840,0,62,-5,7,3
264167,-0.01,-0.02,1.02,-0.67,0.31,-0.85,15.50,-30.50,31.50,53.650875,9.698421,6.50,0.20,12,3.950,0,63,-5,7,3
264267,0.01,-0.05,1.03,-0.73,-0.49,-0.55,16.50,-32.50,32.50,53.650875,9.698421,6.50,0.20,12,3.922,0,63,-5,7,3
264367,-0.01,0.04,0.98,-1.40,-0.43,0.37,13.50,-30.50,30.50,53.650875,9.698421,6.50,0.20,12,3.78-2,0,65,-5,7,3
264467,0.01,-0.01,1.00,0.73,-0.18,-0.18,15.50,-27.50,32.50,53.650875,9.698421,6.50,0.20,12,3.940,0,60,-5,7,3
264568,0.02,-0.03,0.99,-0.24,0.43,-0.55,14.50,-32.50,28.50,53.650875,9.698421,6.50,0.20,12,3.931,0,65,-5,7,3
264668,0.01,-0.00,1.00,-0.18,0.18,2.01,15.50,-28.50,30.50,53.650875,9.698421,6.50,0.20,12,3.920,0,61,-5,7,3
264768,-0.02,-0.01,1.01,-0.24,-0.49,1.40,15.50,-29.50,24.50,53.650875,9.698421,6.50,0.20,12,3.960,0,63,-5,7,3
264868,0.12,-0.07,1.00,-1.71,-0.37,9.58,14.50,-27.50,33.50,53.650875,9.698421,6.50,0.20,12,3.883,6,58,-5,7,3
264968,-0.01,0.02,0.99,-0.85,0.06,0.06,14.50,-28.50,32.50,53.650875,9.698421,6.50,0.20,12,3.92-1,0,62,-5,7,3
265068,-0.01,-0.01,0.98,0.12,0.43,-0.67,14.50,-28.50,37.50,53.650875,9.698421,6.50,0.20,12,3.960,0,63,-5,7,3
265168,-0.01,0.01,0.99,-0.06,-0.18,-7.20,16.50,-30.50,35.50,53.650875,9.698421,6.50,0.20,12,3.880,0,61,-5,7,3
265272,-0.00,-0.01,1.01,-0.61,0.67,0.12,16.50,-28.50,31.50,53.650875,9.698421,6.50,0.20,12,3.930,0,60,-5,7,3
265372,0.01,0.00,1.00,-1.28,-0.06,0.00,13.50,-31.50,32.50,53.650875,9.698421,6.50,0.20,12,3.870,0,66,-5,7,3
265472,0.01,-0.01,1.01,-0.67,0.00,-0.06,15.50,-28.50,30.50,53.650875,9.698421,6.50,0.20,12,3.920,0,61,-5,7,3
265572,-0.00,-0.00,1.01,-0.18,0.31,-2.75,15.50,-31.50,32.50,53.650875,9.698421,6.50,0.20,12,3.730,0,63,-5,7,3
265672,0.00,-0.01,1.01,-0.12,-0.24,-0.24,16.50,-29.50,30.50,53.650875,9.698421,6.50,0.20,12,3.800,0,61,-5,7,3
265773,-0.01,0.00,1.01,-0.61,-0.06,0.92,14.50,-32.50,32.50,53.650875,9.698421,6.50,0.20,12,3.930,0,66,-5,7,3
265876,0.01,0.00,1.00,-0.31,0.55,-0.12,14.50,-32.50,28.50,53.650875,9.698421,6.50,0.20,12,3.940,0,65,-5,7,3
265992,-0.02,-0.07,0.99,0.31,0.06,-1.04,16.50,-31.50,34.50,53.650875,9.698421,6.50,0.20,12,3.943,0,64,-5,7,3
266092,0.02,-0.03,1.00,-0.06,-0.79,1.10,15.50,-29.50,31.50,53.650875,9.698421,6.50,0.20,12,3.771,1,62,-5,7,3
266197,0.02,-0.02,1.01,0.31,-0.18,0.55,13.50,-29.50,30.50,53.650875,9.698421,6.50,0.20,12,3.940,1,64,-5,7,3
266297,-0.07,-0.02,0.99,-0.06,0.31,2.14,13.50,-31.50,28.50,53.650875,9.698421,6.50,0.06,12,3.941,-4,70,-5,7,3
266397,-0.02,-0.03,1.00,-0.73,-0.73,0.31,13.50,-31.50,33.50,53.650875,9.698421,6.50,0.13,12,3.961,-1,68,-5,7,3
266497,0.05,-0.00,1.00,-0.55,-0.49,2.50,12.50,-25.50,34.50,53.650875,9.698421,6.50,0.09,12,3.940,2,61,-5,7,3
266597,-0.00,-0.00,1.00,0.55,0.24,3.66,12.50,-25.50,34.50,53.650875,9.698421,6.50,0.26,12,3.940,0,64,-5,7,3
266697,0.02,-0.03,1.01,0.31,0.18,0.00,15.50,-28.50,34.50,53.650875,9.698421,6.50,0.35,12,3.911,0,61,-5,7,3
266797,0.00,-0.01,1.02,-1.22,-0.79,-1.04,14.50,-28.50,36.50,2.266667,0.333333,6.70,0.17,37,3.900,0,63,-5,7,3
266898,-0.07,-0.03,1.00,12.27,-22.64,-7.14,14.50,-33.50,38.50,53.650875,9.698421,6.70,0.26,37,3.821,-4,71,-5,7,3
266998,0.10,0.01,1.00,2.56,-3.54,-18.13,14.50,-29.50,34.50,53.650875,9.698421,6.70,0.26,37,3.870,5,58,-5,7,3
267100,-0.02,-0.01,1.00,-0.24,-0.67,1.28,15.50,-29.50,29.50,53.650875,9.698421,6.70,0.26,37,3.930,-1,63,-5,7,3
267200,0.08,0.03,0.98,-13.85,23.38,5.43,14.50,-29.50,33.50,53.650875,9.698421,6.70,0.26,37,3.94-1,4,58,-5,7,3
267300,-0.20,-0.12,1.04,-16.24,32.90,1.59,15.50,-29.50,29.50,53.650875,9.698421,6.70,0.13,37,3.936,-10,73,-5,7,3
267400,-0.01,0.02,1.00,0.73,0.18,-0.24,14.50,-29.50,30.50,53.650875,9.698421,6.70,0.11,37,3.93-1,0,63,-5,7,3
267500,0.01,-0.05,1.00,1.59,0.31,-0.67,16.50,-33.50,33.50,53.650875,9.698421,6.70,0.19,37,3.832,0,64,-5,7,3
267600,0.01,-0.01,1.00,-0.49,-0.98,-1.04,16.50,-32.50,30.50,53.650875,9.698421,6.70,0.11,37,3.920,0,62,-5,7,3
267700,-0.01,0.01,0.96,4.21,-11.11,0.73,14.50,-31.50,30.50,53.650875,9.698421,6.70,0.07,37,3.910,0,65,-5,7,3
267819,-0.17,-0.10,1.01,-2.93,5.07,15.75,12.50,-29.50,33.50,53.650875,9.698421,6.70,0.09,37,3.955,-9,78,-5,7,3
267919,-0.05,-0.04,1.00,-0.31,0.06,1.04,14.50,-27.50,31.50,53.650875,9.698421,6.70,0.17,12,3.972,-2,65,-5,7,3
268019,0.01,-0.01,0.99,0.31,0.18,0.12,15.50,-29.50,33.50,53.650875,9.698421,6.70,0.17,12,3.940,0,62,-5,7,3
268119,0.01,0.00,1.01,-0.18,0.00,0.06,14.50,-27.50,32.50,53.650875,9.698421,6.70,0.17,12,3.880,0,61,-5,7,3
268276,-0.14,-0.05,0.98,-0.37,0.55,-1.40,15.50,-29.50,34.50,53.650875,9.698421,6.70,0.19,12,3.932,-7,71,-5,7,3
268376,0.01,0.01,1.01,-0.31,-2.87,-1.10,15.50,-27.50,37.50,53.650875,9.698421,6.70,0.19,12,3.960,0,59,-5,7,3
268476,0.01,0.00,0.99,0.37,-0.18,0.55,15.50,-26.50,36.50,53.650875,9.698421,6.70,0.19,12,3.930,0,59,-5,7,3
268576,0.01,-0.05,0.99,-1.10,1.53,0.79,13.50,-27.50,33.50,53.650875,9.698421,6.70,0.19,12,3.972,0,64,-5,7,3
268676,-0.02,0.04,0.99,-0.24,1.77,0.37,15.50,-27.50,36.50,53.650875,9.698421,6.70,0.19,12,3.96-2,0,60,-5,7,3
268777,0.00,-0.00,1.03,1.16,-3.23,-1.04,13.50,-27.50,37.50,53.650875,9.698421,6.70,0.19,12,3.900,0,63,-5,7,3
268880,0.01,-0.02,1.00,-0.98,-1.16,-0.37,16.50,-29.50,40.50,53.650875,9.698421,6.70,0.19,12,3.941,0,61,-5,7,3
268980,-0.14,0.01,0.98,-0.37,-0.49,-0.31,15.50,-26.50,34.50,53.650875,9.698421,6.70,0.19,12,3.990,-8,68,-5,7,3
269080,0.11,-0.03,1.01,1.28,0.24,8.67,14.50,-28.50,36.50,53.650875,9.698421,6.70,0.19,12,3.971,6,57,-5,7,3
269180,-0.22,-0.08,0.96,11.11,-27.28,-15.93,14.50,-28.50,36.50,53.650875,9.698421,6.70,0.19,12,3.994,-12,79,-5,7,3
269280,-0.02,-0.02,1.03,-2.99,4.58,0.98,12.50,-24.50,33.50,53.650875,9.698421,6.70,0.19,12,3.871,-1,64,-5,7,3
269380,0.01,0.00,0.97,0.49,-2.20,13.67,14.50,-26.50,36.50,53.650875,9.698421,6.70,0.19,12,3.940,0,60,-5,7,3
269480,-0.01,0.00,0.99,-2.32,5.55,0.00,15.50,-25.50,33.50,53.650875,9.698421,6.70,0.19,12,3.930,0,59,-5,7,3
269580,-0.03,-0.03,0.99,11.23,-21.12,-0.43,13.50,-24.50,35.50,53.650875,9.698421,6.70,0.19,12,3.981,-1,64,-5,7,3
269680,0.03,0.00,0.99,-2.93,4.27,0.24,12.50,-28.50,34.50,53.650875,9.698421,6.70,0.19,12,3.940,1,64,-5,7,3
269780,0.01,-0.00,1.00,5.00,-9.03,-0.12,12.50,-28.50,34.50,53.650875,9.698421,6.70,0.19,12,3.930,0,65,-5,7,3
269880,-0.01,-0.04,1.04,-10.44,16.66,0.98,15.50,-29.50,36.50,53.650875,9.698421,6.70,0.19,12,3.972,0,64,-5,7,3
269980,-0.00,0.01,0.99,1.59,-1.89,-4.27,15.50,-29.50,36.50,53.650875,9.698421,6.70,0.19,12,3.930,0,62,-5,7,3
270080,0.04,0.01,0.99,-1.65,2.50,7.87,12.50,-26.50,35.50,53.650875,9.698421,6.70,0.19,12,3.980,2,61,-5,7,3
270180,0.00,-0.01,1.01,0.31,-0.37,0.43,13.50,-29.50,37.50,53.650875,9.698421,6.70,0.19,12,3.950,0,65,-5,7,3
270280,0.01,-0.00,1.00,-4.46,6.53,0.24,13.50,-27.50,33.50,53.650875,9.698421,6.70,0.19,12,3.960,0,63,-5,7,3
270385,-0.02,-0.01,1.00,0.73,-0.67,0.31,12.50,-29.50,34.50,53.650875,9.698421,6.70,0.19,12,3.930,-1,68,-5,7,3
270485,-0.02,-0.02,1.01,0.49,-0.24,0.00,13.50,-29.50,34.50,53.650875,9.698421,6.70,0.19,12,3.941,-1,67,-5,7,3
270585,-0.03,-0.03,1.02,2.75,-5.49,0.24,13.50,-28.50,39.50,53.650875,9.698421,6.70,0.19,12,3.971,-1,67,-5,7,3
270686,-0.07,-0.04,1.03,-2.44,4.09,0.61,15.50,-28.50,37.50,53.650875,9.698421,6.70,0.19,12,3.952,-3,66,-5,7,3
270786,-0.01,-0.01,1.01,1.83,-2.44,8.73,14.50,-24.50,34.50,53.650875,9.698421,6.70,0.19,12,3.970,0,60,-5,7,3
270886,-0.03,0.02,1.00,1.16,-0.73,-6.59,14.50,-24.50,36.50,53.650875,9.698421,6.70,0.07,12,3.97-1,-1,60,-5,7,3
270986,-0.02,-0.03,1.01,-0.24,0.67,-0.43,13.50,-25.50,35.50,53.650875,9.698421,6.70,0.07,12,3.981,-1,64,-5,7,3
271086,-0.01,-0.01,0.98,-2.69,5.62,0.06,12.50,-24.50,38.50,53.650875,9.698421,6.70,0.19,12,3.940,0,64,-5,7,3
271186,-0.01,-0.00,0.99,5.80,-5.31,0.37,14.50,-24.50,36.50,53.650875,9.698421,6.70,0.19,12,3.980,0,60,-5,7,3
271286,0.04,0.01,0.99,1.04,-1.89,0.73,15.50,-26.50,40.50,53.650875,9.698421,6.70,0.19,12,3.940,2,56,-5,7,3
271386,-0.04,-0.02,1.00,4.82,-8.42,-2.08,13.50,-27.50,42.50,53.650875,9.698421,6.70,0.22,12,3.941,-2,67,-5,7,3
271486,0.10,-0.03,1.02,-0.24,1.59,-6.04,15.50,-30.50,40.50,53.650875,9.698421,6.70,0.22,12,3.961,5,58,-5,7,3
271586,0.00,-0.02,1.01,-0.06,0.18,0.67,13.50,-29.50,36.50,53.650875,9.698421,6.70,0.22,12,3.941,0,65,-5,7,3
271686,-0.03,-0.01,0.99,-3.72,8.61,0.73,13.50,-28.50,37.50,53.650875,9.698421,6.70,0.22,12,3.910,-1,66,-5,7,3
271786,-0.06,-0.04,1.01,4.27,-8.73,0.79,13.50,-26.50,40.50,53.650875,9.698420,6.70,0.30,12,3.972,-3,68,-5,7,3
271886,-0.12,0.01,1.01,-0.43,-1.28,8.00,12.50,-25.50,37.50,53.650875,9.698420,6.70,0.30,12,3.960,-6,72,-5,7,3
271986,-0.05,-0.02,1.00,-0.73,-0.12,2.01,11.50,-24.50,41.50,53.650875,9.698420,6.70,0.30,12,3.921,-2,69,-5,7,3
272086,-0.03,-0.06,1.05,-0.85,0.55,-1.71,15.50,-24.50,37.50,53.650875,9.698420,6.70,0.30,12,3.943,-1,61,-5,7,3
272186,0.00,0.01,1.00,-1.71,-0.67,-0.73,14.50,-24.50,36.50,53.650875,9.698420,6.70,0.30,12,3.980,0,58,-5,7,3
272291,0.02,-0.01,1.00,1.04,0.55,-0.12,13.50,-26.50,35.50,53.650875,9.698420,6.70,0.30,12,3.960,1,61,-5,7,3
272395,0.01,-0.01,1.02,-1.28,-0.92,1.04,13.50,-25.50,37.50,53.650875,9.698420,6.70,0.41,12,3.970,0,61,-5,7,3
272495,-0.01,-0.00,1.08,-6.59,7.26,-1.34,14.50,-26.50,34.50,53.650875,9.698420,6.70,0.41,12,3.970,0,61,-5,7,3
272620,-0.08,-0.06,1.08,-0.06,0.00,-2.20,15.50,-27.50,37.50,53.650875,9.698420,6.70,0.22,12,3.903,-4,66,-5,7,3
272720,-0.03,0.02,0.98,-2.14,0.00,-1.10,15.50,-26.50,37.50,53.650875,9.698420,6.60,0.22,12,3.860,-1,61,-5,7,3
272820,-0.04,0.03,0.97,-0.92,-0.18,1.65,14.50,-25.50,36.50,53.650875,9.698420,6.60,0.22,12,3.84-1,-2,61,-5,7,3
272920,-0.01,-0.05,1.01,-0.06,0.49,-0.12,14.50,-26.50,35.50,53.650875,9.698420,6.60,0.24,12,3.882,0,63,-5,7,3
273021,0.00,-0.00,1.00,-0.43,-0.24,0.12,15.50,-28.50,33.50,53.650875,9.698420,6.60,0.13,12,3.960,0,61,-5,7,3
273121,-0.02,-0.01,0.98,-1.28,-4.52,-2.38,15.50,-24.50,38.50,53.650875,9.698420,6.60,0.11,12,3.890,-1,59,-5,7,3
273221,-0.02,-0.07,1.00,-0.61,-1.89,-4.21,14.50,-23.50,38.50,53.650875,9.698420,6.60,0.19,12,3.954,-1,62,-5,7,3
273321,-0.02,0.10,0.96,4.94,5.31,-2.93,16.50,-27.50,36.50,53.650875,9.698420,6.60,0.19,12,3.94-6,-1,56,-5,7,3
273421,-0.02,-0.00,1.00,0.43,2.56,1.04,14.50,-27.50,36.50,53.650875,9.698420,6.60,0.19,12,3.840,-1,63,-5,7,3
273521,-0.05,-0.05,1.01,1.10,-2.01,-0.43,15.50,-30.50,34.50,53.650875,9.698420,6.70,0.19,12,3.912,-2,66,-5,7,3
273621,0.01,-0.01,1.00,-1.83,-1.16,-4.94,15.50,-24.50,37.50,53.650875,9.698420,6.70,0.17,12,3.950,0,57,-5,7,3
273721,-0.04,-0.02,1.07,-5.74,-6.77,-7.32,14.50,-31.50,33.50,53.650875,9.698420,6.70,0.17,12,3.890,-2,67,-5,7,3
273821,-0.05,0.04,1.11,-4.33,-21.36,0.24,12.50,-27.50,37.50,53.650875,9.698420,6.70,0.17,12,3.90-1,-2,67,-5,7,3
273921,-0.09,-0.01,0.93,-15.69,-6.96,3.11,15.50,-24.50,36.50,53.650875,9.698420,6.70,0.02,12,3.930,-5,64,-5,7,3
274021,-0.18,0.04,0.97,5.13,-6.10,-10.62,15.50,-24.50,40.50,53.650875,9.698420,6.70,0.02,12,3.83-2,-10,70,-5,7,3
274123,-0.14,0.01,0.99,1.04,0.43,-1.10,15.50,-22.50,35.50,53.650875,9.698420,6.70,0.06,12,3.860,-7,64,-5,7,3
274223,-0.12,0.03,0.98,3.91,-2.44,0.06,16.50,-21.50,39.50,53.650875,9.698420,6.70,0.11,12,3.92-1,-6,59,-5,7,3
274327,0.08,-0.05,1.11,3.23,17.64,-1.22,15.50,-22.50,30.50,53.650875,9.698420,6.70,0.13,12,3.892,3,53,-5,7,3
274427,-0.07,-0.04,0.98,3.91,27.59,7.81,13.50,-24.50,37.50,53.650875,9.698420,6.70,0.13,12,3.842,-4,67,-5,7,3
274527,-0.07,0.04,1.01,-6.41,-24.48,-1.16,14.50,-29.50,39.50,53.650875,9.698420,6.70,0.17,12,3.98-2,-3,67,-5,7,3
274627,-0.09,-0.02,0.99,-7.14,2.08,1.59,15.50,-24.50,39.50,53.650875,9.698420,6.70,0.17,12,3.941,-5,64,-5,7,3
274728,-0.13,0.03,0.86,-1.10,9.70,4.03,16.50,-21.50,43.50,53.650875,9.698420,6.70,0.17,12,3.92-2,-8,63,-5,7,3
274828,-0.11,-0.01,1.03,-0.73,0.49,3.11,16.50,-25.50,33.50,53.650875,9.698420,6.70,0.26,12,3.850,-6,63,-5,7,3
274928,-0.15,0.00,0.86,1.46,-8.91,-3.60,16.50,-22.50,35.50,53.650875,9.698420,6.70,0.20,12,3.950,-9,65,-5,7,3
275028,-0.11,0.02,1.00,-0.37,-0.12,-0.18,15.50,-24.50,32.50,53.650875,9.698420,6.70,0.20,12,4.22-1,-6,63,-5,7,3
275128,-0.12,0.01,0.98,0.18,2.44,0.43,15.50,-26.50,38.50,53.650875,9.698420,6.70,0.20,12,3.940,-6,67,-5,7,3
275228,-0.06,-0.03,1.10,1.28,5.13,0.43,15.50,-20.50,37.50,53.650875,9.698420,6.70,0.20,12,3.791,-3,57,-5,7,3
275328,-0.15,-0.03,0.95,-2.26,0.06,1.53,14.50,-24.50,38.50,53.650875,9.698420,6.70,0.20,12,3.942,-8,71,-5,7,3
275428,-0.10,0.00,1.00,0.31,0.12,-0.24,14.50,-25.50,36.50,53.650875,9.698420,6.70,0.20,12,3.940,-5,66,-5,7,3
275528,-0.08,-0.01,1.06,0.49,2.20,-1.28,14.50,-24.50,37.50,53.650875,9.698420,6.70,0.20,12,4.000,-4,64,-5,7,3
275628,-0.10,0.00,0.98,-3.11,-3.36,2.81,15.50,-28.50,31.50,53.650875,9.698420,6.70,0.20,12,3.930,-6,66,-5,7,3
275728,-0.08,0.00,1.00,0.55,0.12,-0.49,15.50,-26.50,33.50,53.650875,9.698420,6.70,0.20,12,3.960,-4,64,-5,7,3
275828,-0.13,0.00,0.89,0.49,5.86,0.98,15.50,-25.50,38.50,53.650875,9.698420,6.70,0.20,12,3.910,-8,69,-5,7,3
275938,-0.05,-0.07,1.08,3.42,10.50,-3.36,14.50,-26.50,35.50,53.650875,9.698420,6.70,0.13,12,3.923,-2,66,-5,7,3
276038,-0.04,0.03,0.96,6.04,20.75,3.05,12.50,-26.50,34.50,53.650875,9.698420,6.70,0.11,12,4.16-1,-2,66,-5,7,3
276138,-0.08,0.00,0.95,-2.87,-11.17,-0.06,14.50,-28.50,37.50,53.650875,9.698420,6.70,0.11,12,3.810,-4,68,-5,7,3
276239,-0.07,0.03,0.92,0.61,-6.23,-5.92,13.50,-24.50,39.50,53.650875,9.698420,6.70,0.11,12,3.92-1,-4,66,-5,7,3
276340,-0.03,0.02,1.03,2.50,3.72,2.08,13.50,-26.50,35.50,53.650875,9.698420,6.70,0.11,12,3.84-1,-1,64,-5,7,3
276440,-0.11,-0.01,0.92,-2.26,-2.93,1.89,12.50,-28.50,39.50,53.650875,9.698420,6.70,0.11,12,3.870,-6,75,-5,7,3
276540,-0.11,-0.02,1.01,0.37,-2.01,0.06,13.50,-27.50,41.50,53.650875,9.698420,6.70,0.11,12,3.900,-5,72,-5,7,3
276640,-0.09,-0.01,0.97,1.34,7.75,0.31,14.50,-24.50,40.50,53.650875,9.698420,6.70,0.11,12,3.940,-5,67,-5,7,3
276740,-0.10,0.01,0.93,-0.98,-3.11,0.12,13.50,-30.50,35.50,53.650875,9.698420,6.70,0.11,12,3.900,-5,71,-5,7,3
276840,-0.08,-0.04,1.03,0.73,-4.33,-2.32,15.50,-26.50,31.50,53.650875,9.698420,6.70,0.11,12,3.941,-4,64,-5,7,3
276940,-0.05,-0.01,1.01,-0.67,-1.53,0.49,14.50,-26.50,37.50,53.650875,9.698420,6.70,0.11,12,3.930,-3,64,-5,7,3
277041,-0.11,-0.02,0.99,0.43,-0.18,-1.53,17.50,-26.50,39.50,53.650875,9.698421,6.70,0.13,12,3.961,-6,64,-5,7,3
277141,-0.10,-0.05,1.10,2.38,6.41,-6.04,13.50,-28.50,37.50,53.650875,9.698421,6.70,0.13,12,3.982,-5,71,-5,7,3
277241,-0.10,-0.03,0.96,-5.92,3.30,5.98,14.50,-30.50,33.50,53.650875,9.698421,6.70,0.13,12,3.981,-5,70,-5,7,3
277341,-0.08,-0.02,1.02,0.31,0.73,0.12,15.50,-26.50,42.50,53.650875,9.698421,6.70,0.13,12,3.941,-4,66,-5,7,3
277441,-0.03,0.01,1.06,-0.37,12.21,5.86,14.50,-27.50,39.50,53.650875,9.698421,6.70,0.13,12,3.930,-1,63,-5,7,3
277541,-0.04,-0.02,1.11,-1.16,-5.37,-0.61,12.50,-27.50,39.50,53.650875,9.698421,6.70,0.13,12,3.961,-1,68,-5,7,3
277641,-0.11,-0.02,1.01,0.92,-1.16,-1.89,15.50,-29.50,37.50,53.650875,9.698421,6.70,0.13,12,3.931,-6,69,-5,7,3
277745,-0.09,-0.02,1.04,-1.22,-0.73,0.73,13.50,-27.50,39.50,53.650875,9.698421,6.70,0.13,12,3.951,-4,70,-5,7,3
277845,-0.09,-0.01,1.01,-1.16,1.34,1.28,13.50,-29.50,39.50,53.650875,9.698421,6.70,0.13,12,3.940,-4,71,-5,7,3
277971,-0.09,-0.01,0.98,-0.49,6.71,2.26,15.50,-28.50,35.50,53.650875,9.698421,6.80,0.17,12,3.870,-5,67,-5,7,3
278071,-0.08,-0.01,0.99,-0.55,0.98,0.73,13.50,-27.50,33.50,53.650875,9.698421,6.80,0.11,12,3.880,-4,68,-5,7,3
278193,-0.05,-0.00,1.00,1.77,5.86,-0.24,14.50,-30.50,36.50,53.650875,9.698421,6.80,0.11,12,3.920,-2,67,-5,7,3
278293,-0.01,-0.03,1.10,1.65,8.97,-0.24,13.50,-29.50,37.50,53.650875,9.698421,6.80,0.11,12,3.921,0,66,-5,7,3
278403,-0.03,-0.01,1.00,-0.24,-0.12,0.18,14.50,-29.50,34.50,53.650875,9.698421,6.80,0.11,12,4.030,-1,65,-5,7,3
278503,-0.03,-0.02,1.00,0.12,0.18,0.24,13.50,-32.50,35.50,53.650875,9.698421,6.80,0.11,12,3.980,-1,69,-5,7,3
278603,-0.03,-0.02,1.00,0.00,0.12,0.00,15.50,-29.50,36.50,53.650875,9.698421,6.80,0.11,12,3.960,-1,64,-5,7,3
278703,-0.04,-0.01,1.00,-0.24,-0.12,0.00,13.50,-28.50,36.50,53.650875,9.698421,6.80,0.22,12,3.980,-2,67,-5,7,3
278803,-0.03,-0.02,1.00,-0.12,0.12,0.18,13.50,-30.50,34.50,53.650875,9.698421,6.80,0.20,12,3.950,-1,68,-5,7,3
278903,-0.03,-0.01,1.00,-0.31,0.12,0.12,13.50,-32.50,40.50,53.650875,9.698421,6.80,0.07,12,3.970,-1,69,-5,7,3
279006,-0.03,-0.01,1.00,0.06,-0.06,0.18,13.50,-29.50,36.50,53.650875,9.698421,6.80,0.07,12,3.940,-1,67,-5,7,3
279106,-0.04,-0.02,0.99,-0.24,0.06,0.37,13.50,-30.50,37.50,53.650875,9.698421,6.80,0.07,12,4.021,-2,68,-5,7,3
279206,-0.03,-0.01,1.00,-0.18,0.00,0.06,14.50,-30.50,35.50,53.650875,9.698421,6.80,0.07,12,3.980,-1,66,-5,7,3
279381,-0.03,-0.02,1.00,-0.06,0.00,0.06,12.50,-29.50,40.50,53.650875,9.698421,6.80,0.11,12,3.911,-1,69,-5,7,3
279481,-0.03,-0.01,1.00,0.00,0.00,0.12,14.50,-31.50,36.50,53.650875,9.698421,6.80,0.11,12,3.960,-1,67,-5,7,3
279585,-0.03,-0.02,1.00,-0.24,-0.06,0.06,13.50,-28.50,34.50,53.650875,9.698421,6.80,0.11,12,3.941,-1,67,-5,7,3
279686,-0.03,-0.01,1.00,-0.12,0.06,0.06,13.50,-29.50,39.50,53.650875,9.698421,6.80,0.11,12,3.940,-2,67,-5,7,3
279786,-0.03,-0.03,1.02,-0.18,-0.24,0.31,13.50,-30.50,40.50,53.650875,9.698421,6.80,0.11,12,3.971,-1,68,-5,7,3
279886,0.02,-0.05,1.02,-1.22,0.92,1.16,14.50,-30.50,35.50,53.650875,9.698421,6.80,0.11,12,3.952,1,64,-5,7,3
279986,-0.03,-0.02,0.99,0.73,1.34,0.18,14.50,-32.50,34.50,53.650875,9.698421,6.80,0.11,12,3.940,-1,68,-5,7,3
280086,-0.03,-0.01,1.01,-0.92,-2.75,0.06,12.50,-28.50,39.50,53.650875,9.698421,6.80,0.11,12,3.950,-1,68,-5,7,3
280186,-0.03,-0.01,1.00,-0.24,-1.04,0.00,13.50,-22.50,34.50,53.650875,9.698421,6.80,0.11,12,4.000,-1,61,-5,7,3
280286,-0.04,-0.01,1.01,-0.24,-0.18,0.24,16.50,-6.50,37.50,53.650875,9.698421,6.80,0.11,12,3.950,-2,25,-5,7,3
280387,-0.04,-0.01,1.00,-0.37,-0.37,0.24,12.50,-6.50,34.50,53.650875,9.698421,6.80,0.11,12,3.940,-2,31,-5,7,3
280536,-0.04,-0.01,1.00,-0.31,0.43,0.00,13.50,-1.50,43.50,53.650875,9.698421,6.80,0.20,12,3.930,-2,9,-5,7,3
280636,-0.03,-0.01,0.99,0.24,0.06,0.31,14.50,-3.50,38.50,53.650875,9.698421,6.80,0.20,12,3.950,-1,16,-5,7,3
280736,-0.04,-0.02,1.00,0.06,-0.06,0.18,15.50,0.50,43.50,53.650875,9.698421,6.80,0.20,12,3.971,-2,1,-5,7,3
280836,-0.03,-0.01,1.00,-0.06,0.18,0.00,12.50,-0.50,42.50,53.650875,9.698421,6.80,0.20,12,3.970,-1,4,-5,7,3
280936,-0.04,-0.02,1.01,-0.12,0.06,0.12,10.50,1.50,43.50,53.650875,9.698421,6.80,0.06,12,3.940,-2,-5,-5,7,3
281036,-0.03,-0.01,1.00,-0.24,0.00,0.31,12.50,2.50,47.50,53.650875,9.698421,6.80,0.11,12,3.950,-1,-10,-5,7,3
281136,-0.03,-0.01,0.99,-1.22,0.37,-0.06,12.50,4.50,41.50,53.650875,9.698421,6.90,0.11,12,3.980,-1,-19,-5,7,3
281236,-0.03,-0.01,0.99,0.06,-0.31,0.85,9.50,5.50,43.50,53.650875,9.698421,6.90,0.11,12,4.010,-1,-32,-5,7,3
281336,-0.04,-0.02,1.01,-0.18,0.06,0.00,11.50,4.50,40.50,53.650875,9.698421,6.90,0.11,12,3.881,-2,-20,-5,7,3
281436,-0.13,-0.05,1.05,-11.23,-80.38,-21.30,11.50,8.50,44.50,53.650875,9.698421,6.90,0.11,12,3.952,-6,-46,-5,7,3
281536,-0.14,-0.00,0.99,-14.40,10.86,5.13,10.50,11.50,40.50,53.650875,9.698421,6.90,0.11,12,3.790,-8,-67,-5,7,3
281636,-0.15,-0.00,1.00,0.12,0.24,0.00,11.50,10.50,41.50,53.650875,9.698421,6.90,0.11,12,4.000,-8,-63,-5,7,3
281736,-0.14,0.01,0.99,-0.79,1.71,0.31,10.50,9.50,45.50,53.650875,9.698421,6.90,0.11,12,3.840,-8,-68,-5,7,3
281836,-0.14,0.01,1.00,-0.61,-0.43,0.12,13.50,7.50,41.50,53.650875,9.698421,6.90,0.11,12,3.940,-8,-46,-5,7,3
281936,-0.14,0.03,1.00,-0.98,0.43,0.55,11.50,9.50,39.50,53.650875,9.698421,6.90,0.17,12,3.75-1,-7,-60,-5,7,3
282038,-0.14,0.00,0.99,0.73,0.24,-1.22,9.50,10.50,37.50,53.650875,9.698421,6.90,0.17,12,3.860,-8,-68,-5,7,3
282138,-0.16,0.01,0.99,0.06,-0.55,-0.61,12.50,10.50,42.50,53.650875,9.698421,6.90,0.17,12,3.940,-9,-63,-5,7,3
282238,-0.12,0.00,0.99,-1.65,0.55,1.71,11.50,9.50,44.50,53.650875,9.698421,6.90,0.17,12,3.880,-7,-58,-5,7,3
282338,-0.16,0.02,0.98,-1.71,1.89,2.56,11.50,9.50,40.50,53.650875,9.698421,6.90,0.17,12,3.94-1,-9,-64,-5,7,3
282438,-0.13,0.01,0.98,-0.49,3.05,3.05,11.50,7.50,41.50,53.650875,9.698421,6.90,0.17,12,3.930,-7,-52,-5,7,3
282544,-0.15,-0.06,1.05,5.13,1.40,-6.41,11.50,9.50,41.50,53.650875,9.698421,6.90,0.17,12,3.963,-8,-52,-5,7,3
282644,-0.13,-0.00,1.00,-0.31,-0.55,0.24,12.50,10.50,43.50,53.650875,9.698421,6.90,0.17,12,3.850,-7,-56,-5,7,3
282761,-0.12,0.00,1.02,-0.92,-2.87,-0.79,11.50,11.50,40.50,53.650875,9.698421,6.90,0.17,12,3.940,-6,-59,-5,7,3
282861,-0.13,0.01,0.99,5.49,-5.13,-2.38,12.50,7.50,43.50,53.650875,9.698421,6.90,0.17,12,3.960,-7,-49,-5,7,3
282961,-0.12,0.00,0.99,-0.67,0.67,0.43,11.50,13.50,40.50,53.650875,9.698421,6.90,0.17,12,3.940,-7,-64,-5,7,3
283061,-0.16,0.00,0.99,4.94,-5.13,-2.08,11.50,9.50,43.50,53.650875,9.698421,6.90,0.17,12,3.870,-9,-65,-5,7,3
283161,-0.15,0.00,0.99,-0.79,0.85,-0.06,12.50,9.50,44.50,53.650875,9.698421,6.90,0.17,12,4.130,-8,-58,-5,7,3
283261,-0.14,0.00,1.00,-0.24,0.12,-0.06,13.50,9.50,40.50,53.650875,9.698421,6.90,0.17,12,3.880,-8,-51,-5,7,3
283361,-0.14,0.01,0.99,-1.10,0.92,0.85,11.50,11.50,39.50,53.650875,9.698421,6.90,0.17,12,3.950,-8,-64,-5,7,3
283461,-0.13,0.00,0.99,-4.15,5.07,2.14,12.50,9.50,38.50,53.650875,9.698421,6.90,0.17,12,3.940,-7,-53,-5,7,3
283561,-0.13,0.01,0.99,-3.42,4.76,2.38,12.50,9.50,43.50,53.650875,9.698421,6.90,0.17,12,3.930,-7,-55,-5,7,3
283661,-0.11,0.03,1.00,0.55,-0.31,-1.04,13.50,10.50,39.50,53.650875,9.698421,6.90,0.17,12,3.92-1,-6,-51,-5,7,3
283761,-0.15,0.01,0.99,0.61,-0.67,-0.73,13.50,9.50,42.50,53.650875,9.698421,6.90,0.17,12,3.890,-8,-55,-5,7,3
283861,-0.15,0.01,0.99,-0.43,0.73,0.18,12.50,8.50,42.50,53.650875,9.698421,6.90,0.17,12,3.790,-8,-55,-5,7,3
283961,-0.13,0.01,0.99,-1.59,1.34,0.79,13.50,9.50,40.50,53.650875,9.698421,6.90,0.17,12,3.940,-7,-50,-5,7,3
284061,-0.10,0.03,1.01,-1.53,1.83,2.38,15.50,7.50,39.50,53.650875,9.698421,6.90,0.17,12,3.93-1,-5,-37,-5,7,3
284161,-0.12,0.01,0.99,-0.37,-0.85,0.73,11.50,9.50,39.50,53.650875,9.698421,6.90,0.17,12,3.930,-6,-55,-5,7,3
284262,-0.09,-0.01,0.99,-1.95,1.28,0.31,14.50,12.50,45.50,53.650875,9.698421,6.90,0.17,12,3.920,-5,-49,-5,7,3
284362,-0.12,0.01,1.00,-1.46,1.28,0.92,13.50,9.50,41.50,53.650875,9.698421,6.90,0.17,12,3.900,-6,-49,-5,7,3
284462,-0.13,-0.00,1.01,5.31,-4.27,-2.69,13.50,10.50,39.50,53.650875,9.698421,6.90,0.17,12,3.870,-7,-51,-5,7,3
284571,-0.12,0.01,0.99,-1.59,1.40,0.85,14.50,10.50,39.50,53.650875,9.698421,6.90,0.17,12,3.930,-6,-48,-5,7,3
284671,-0.14,-0.00,0.99,-0.06,-0.24,0.43,15.50,9.50,44.50,53.650875,9.698421,6.90,0.17,12,3.940,-7,-45,-5,7,3
284771,-0.14,0.02,0.99,2.44,-1.28,0.06,14.50,10.50,40.50,53.650875,9.698421,6.90,0.17,12,3.87-1,-7,-51,-5,7,3
284873,-0.16,-0.02,1.01,4.46,-2.08,-5.31,11.50,11.50,38.50,53.650875,9.698421,6.90,0.17,12,3.871,-9,-63,-5,7,3
284973,-0.14,-0.02,0.98,-0.43,0.24,0.06,14.50,8.50,43.50,53.650875,9.698421,6.90,0.17,12,3.920,-8,-43,-5,7,3
285073,-0.14,0.03,0.99,-0.24,0.61,-0.06,13.50,9.50,40.50,53.650875,9.698422,7.10,0.07,12,3.87-1,-8,-54,-5,7,3
285173,-0.11,-0.07,1.03,-3.60,10.31,1.77,13.50,9.50,38.50,53.650875,9.698422,7.10,0.07,12,3.943,-5,-35,-5,7,3
285273,-0.10,0.05,0.95,0.61,4.52,1.10,11.50,10.50,42.50,53.650875,9.698422,7.10,0.07,12,3.95-3,-6,-61,-5,7,3
285373,-0.15,0.01,0.98,3.05,-0.43,-1.59,12.50,10.50,37.50,53.650875,9.698422,7.10,0.07,12,3.930,-8,-59,-5,7,3
285473,-0.11,-0.03,1.01,-0.31,0.00,-0.12,10.50,10.50,40.50,53.650875,9.698422,7.10,0.07,12,3.921,-6,-56,-5,7,3
285573,-0.12,0.04,0.87,-11.41,-5.25,1.16,12.50,9.50,40.50,53.650875,9.698422,7.10,0.07,12,3.92-2,-7,-59,-5,7,3
285673,-0.14,-0.01,0.99,1.28,-1.59,-0.43,10.50,9.50,39.50,53.650875,9.698422,7.10,0.07,12,3.860,-8,-62,-5,7,3
285773,-0.15,-0.02,0.99,0.12,0.18,0.00,11.50,10.50,37.50,53.650875,9.698422,7.10,0.07,12,3.830,-8,-59,-5,7,3
285873,-0.15,-0.01,0.99,-1.46,1.34,-0.43,13.50,11.50,46.50,53.650875,9.698422,7.10,0.07,12,3.920,-8,-59,-5,7,3
285974,-0.15,-0.02,0.99,-2.69,-0.12,-1.40,10.50,10.50,39.50,53.650875,9.698422,7.10,0.07,12,3.871,-8,-64,-5,7,3
286097,-0.13,0.03,1.02,-2.99,2.08,1.10,14.50,11.50,42.50,53.650875,9.698422,7.10,0.07,12,3.90-1,-7,-54,-5,7,3
286197,-0.15,0.00,0.98,0.79,-0.92,-0.06,13.50,12.50,43.50,53.650875,9.698422,7.10,0.07,12,3.900,-8,-61,-5,7,3
286297,-0.15,0.00,0.99,-0.61,0.85,0.55,9.50,10.50,42.50,53.650875,9.698421,7.10,0.04,12,3.860,-8,-74,-5,7,3
286397,-0.14,0.01,1.01,-0.43,-2.01,-0.73,12.50,9.50,39.50,53.650875,9.698421,7.10,0.00,12,3.840,-7,-54,-5,7,3
286497,-0.11,-0.03,1.01,0.73,-1.28,-0.31,10.50,11.50,37.50,53.650875,9.698421,7.10,0.11,12,3.931,-6,-57,-5,7,3
286607,-0.13,-0.00,1.00,-0.67,-0.31,0.79,13.50,14.50,45.50,53.650875,9.698421,7.10,0.06,12,3.910,-7,-63,-5,7,3
286707,-0.14,0.00,0.99,-0.12,0.12,-0.31,11.50,14.50,39.50,53.650875,9.698421,7.10,0.07,12,3.940,-7,-67,-5,7,3
286807,-0.14,0.01,0.99,0.37,-1.40,-0.24,12.50,10.50,39.50,53.650875,9.698421,7.10,0.06,12,3.930,-8,-58,-5,7,3
286907,-0.14,-0.02,1.00,0.85,-1.16,-0.24,13.50,11.50,42.50,53.650875,9.698421,7.10,0.09,12,3.941,-8,-55,-5,7,3
287007,-0.15,-0.01,1.00,0.00,-0.98,1.34,12.50,11.50,40.50,53.650875,9.698421,7.10,0.09,12,4.010,-8,-59,-5,7,3
287107,-0.15,0.00,0.99,-0.85,0.92,0.67,13.50,11.50,37.50,53.650875,9.698421,7.10,0.09,12,3.860,-8,-56,-5,7,3
287207,-0.13,-0.00,0.99,-6.35,9.28,2.87,14.50,9.50,44.50,53.650875,9.698421,7.10,0.22,12,4.150,-7,-47,-5,7,3
287307,-0.15,0.02,0.99,-3.11,4.33,1.46,11.50,9.50,47.50,53.650875,9.698421,7.10,0.02,12,3.910,-8,-66,-5,7,3
287408,-0.14,0.01,0.99,-2.20,-5.19,-0.79,11.50,11.50,40.50,53.650875,9.698421,7.10,0.04,12,3.930,-7,-63,-5,7,3
287508,-0.14,-0.01,1.00,-0.61,1.77,0.43,13.50,12.50,43.50,53.650875,9.698421,7.10,0.13,12,3.820,-8,-59,-5,7,3
287608,-0.13,-0.00,0.99,-0.37,0.18,0.06,11.50,13.50,39.50,53.650875,9.698421,7.10,0.09,12,3.880,-7,-65,-5,7,3
287708,-0.14,-0.00,1.00,0.12,-0.31,0.06,12.50,13.50,43.50,53.650875,9.698421,7.10,0.06,12,3.930,-8,-64,-5,7,3
287808,-0.14,-0.01,0.99,-0.31,0.55,0.12,13.50,13.50,41.50,53.650875,9.698421,7.10,0.09,12,3.970,-8,-60,-5,7,3
287908,-0.14,0.00,0.98,-2.01,2.81,1.28,13.50,11.50,41.50,53.650875,9.698421,7.10,0.04,12,3.910,-8,-57,-5,7,3
288010,-0.15,-0.00,0.99,1.46,-2.56,-0.67,13.50,11.50,39.50,53.650875,9.698421,7.10,0.04,12,3.880,-8,-56,-5,7,3
288141,-0.13,-0.00,1.00,-1.46,2.62,2.14,12.50,11.50,42.50,53.650875,9.698421,7.10,0.20,12,4.220,-7,-58,-5,7,3
288241,-0.15,0.02,0.99,-1.16,0.92,0.61,12.50,11.50,36.50,53.650875,9.698421,7.10,0.20,12,3.900,-8,-60,-5,7,3
288383,-0.13,0.01,1.00,-6.77,9.95,3.30,11.50,10.50,39.50,53.650875,9.698421,7.10,0.20,12,3.850,-7,-59,-5,7,3
288483,-0.12,0.01,1.00,-8.54,12.82,5.00,13.50,10.50,42.50,53.650875,9.698421,7.10,0.20,12,3.990,-7,-53,-5,7,3
288583,-0.11,-0.01,1.04,-4.94,5.07,0.61,12.50,12.50,37.50,53.650875,9.698421,7.10,0.20,12,3.940,-5,-54,-5,7,3
288685,-0.11,0.00,1.04,-17.33,14.47,1.28,11.50,11.50,40.50,53.650875,9.698421,7.10,0.20,12,3.910,-6,-58,-5,7,3
288785,-0.10,0.03,1.00,0.73,-0.92,-0.31,15.50,13.50,41.50,53.650875,9.698421,7.10,0.20,12,3.92-1,-5,-52,-5,7,3
288885,-0.11,0.05,0.99,3.23,-5.13,-2.01,13.50,8.50,36.50,53.650875,9.698421,7.10,0.20,12,3.94-2,-6,-48,-5,7,3
288985,-0.11,0.02,1.00,1.83,-2.38,-0.85,12.50,10.50,39.50,53.650875,9.698421,7.10,0.20,12,3.90-1,-6,-54,-5,7,3
289086,-0.13,0.01,0.99,-5.74,7.75,2.50,8.50,10.50,39.50,53.650875,9.698421,7.10,0.20,12,3.840,-7,-74,-5,7,3
289186,-0.10,0.04,0.98,15.20,-22.09,0.00,12.50,9.50,42.50,53.650875,9.698421,7.10,0.20,12,3.86-2,-5,-53,-6,7,3
289286,-0.12,0.01,0.99,0.55,-1.04,-0.61,12.50,11.50,44.50,53.650875,9.698421,7.10,0.20,12,3.850,-7,-60,-5,7,3
289386,-0.12,0.01,1.01,13.92,-12.39,-4.76,13.50,8.50,40.50,53.650875,9.698421,7.10,0.20,12,3.910,-6,-45,-5,7,3
289486,-0.10,0.02,1.00,6.59,1.22,-0.67,12.50,9.50,41.50,53.650875,9.698421,7.10,0.04,12,3.910,-5,-51,-5,7,3
289587,-0.11,0.02,0.97,2.75,-2.56,-0.43,13.50,3.50,43.50,53.650875,9.698421,7.10,0.04,12,3.91-1,-6,-26,-6,7,3
289687,-0.12,0.01,1.00,-3.78,3.36,1.10,12.50,4.50,40.50,53.650875,9.698421,7.10,0.04,12,3.970,-6,-31,-5,7,3
289788,-0.12,0.01,0.98,-5.43,5.98,1.77,9.50,-3.50,38.50,53.650875,9.698421,7.10,0.04,12,3.980,-7,32,-5,7,3
289888,-0.11,0.01,0.99,-6.04,5.49,1.77,9.50,-3.50,38.50,53.650875,9.698421,7.10,0.06,12,3.980,-6,32,-5,7,3
289988,-0.11,0.01,1.00,-2.56,2.14,0.43,13.50,-15.50,34.50,53.650875,9.698421,7.10,0.06,12,3.960,-6,57,-5,7,3
290088,-0.11,0.01,1.00,-1.59,1.53,0.55,18.50,-15.50,36.50,53.650875,9.698421,7.10,0.06,12,3.970,-6,46,-5,7,3
290188,-0.11,0.02,1.00,-1.83,1.53,0.37,15.50,-14.50,34.50,53.650875,9.698421,7.10,0.06,12,3.950,-6,49,-5,7,3
290288,-0.07,0.03,1.02,2.14,5.13,-0.37,16.50,-21.50,38.50,53.650875,9.698421,7.10,0.06,12,3.95-1,-4,56,-5,7,3
290389,-0.11,0.00,0.99,2.44,-0.79,-0.06,13.50,-20.50,38.50,53.650875,9.698421,7.10,0.06,12,3.960,-6,66,-5,7,3
290489,-0.11,0.02,0.97,1.34,-0.85,-0.85,17.50,-24.50,36.50,53.650875,9.698421,7.10,0.09,12,3.950,-6,60,-5,7,3
290589,-0.11,0.01,1.02,0.12,0.92,0.67,15.50,-23.50,31.50,53.650875,9.698421,7.10,0.09,12,3.920,-6,62,-5,7,3
290697,-0.09,-0.00,1.01,2.69,2.56,-0.61,15.50,-21.50,41.50,53.650875,9.698421,7.10,0.02,12,3.970,-5,61,-5,7,3
290797,-0.16,-0.03,0.94,9.70,-5.43,-3.30,15.50,-27.50,36.50,53.650875,9.698421,7.10,0.37,12,3.931,-9,72,-5,7,3
290897,-0.11,-0.01,0.95,1.40,7.08,0.98,16.50,-26.50,37.50,53.650875,9.698421,7.10,0.07,12,3.940,-6,66,-5,7,3
290997,-0.03,0.05,0.95,2.93,12.82,-1.34,13.50,-25.50,37.50,53.650875,9.698421,7.10,0.07,12,3.96-3,-1,62,-5,7,3
291097,-0.07,0.03,1.00,1.10,-0.43,-3.17,14.50,-25.50,35.50,53.650875,9.698421,7.10,0.07,12,3.93-1,-4,64,-5,7,3
291197,-0.08,-0.04,1.00,0.24,-0.06,-1.04,12.50,-25.50,39.50,53.650875,9.698421,7.10,0.07,12,3.972,-4,70,-5,7,3
291297,-0.08,0.01,0.96,0.24,5.07,0.49,13.50,-28.50,39.50,53.650875,9.698421,7.10,0.09,12,3.990,-4,70,-5,7,3
291397,-0.08,-0.02,0.98,0.12,2.69,1.28,13.50,-24.50,35.50,53.650871,9.698421,7.20,0.22,12,3.931,-4,67,-5,7,3
291497,-0.07,-0.02,0.99,-0.31,0.00,-0.31,14.50,-25.50,35.50,53.650871,9.698421,7.20,0.11,12,3.931,-3,65,-5,7,3
291597,-0.07,-0.01,1.00,0.06,0.18,0.06,13.50,-28.50,34.50,53.650871,9.698421,7.20,0.09,12,3.940,-3,69,-5,7,3
291712,-0.08,-0.02,0.99,-1.89,0.49,2.01,15.50,-28.50,38.50,53.650871,9.698421,7.20,0.31,12,3.921,-4,67,-5,7,3
291812,-0.07,-0.01,1.00,-2.93,-2.81,2.20,13.50,-28.50,31.50,53.650871,9.698421,7.20,0.31,12,3.940,-3,68,-5,7,3
291912,-0.08,-0.02,1.10,-11.41,-44.43,-1.34,13.50,-23.50,37.50,53.650871,9.698421,7.20,0.02,12,3.931,-3,65,-5,7,3
292012,-0.15,0.01,0.99,3.23,-2.69,-1.10,15.50,-20.50,38.50,53.650871,9.698421,7.20,0.02,12,3.940,-8,64,-5,7,3
292112,-0.14,-0.01,1.01,-0.37,0.37,0.12,13.50,-21.50,36.50,53.650871,9.698421,7.20,0.11,12,3.940,-7,68,-5,7,3
292212,-0.14,0.01,1.00,0.61,-0.18,-0.06,14.50,-21.50,40.50,53.650871,9.698421,7.20,0.15,12,3.940,-8,67,-5,7,3
292312,-0.14,-0.00,1.00,0.18,0.00,0.24,14.50,-21.50,37.50,53.650871,9.698421,7.20,0.09,12,3.990,-8,67,-5,7,3
292412,-0.14,-0.00,1.00,-0.31,0.43,0.18,12.50,-20.50,38.50,53.650871,9.698421,7.20,0.09,12,3.940,-8,71,-5,7,3
292512,-0.14,0.01,0.99,0.06,0.12,0.00,15.50,-21.50,37.50,53.650871,9.698421,7.20,0.20,12,3.940,-7,64,-5,7,3
292612,-0.14,-0.01,1.00,0.00,-0.06,0.12,13.50,-21.50,38.50,53.650871,9.698421,7.20,0.04,12,4.000,-8,69,-5,7,3
292712,-0.14,0.00,1.00,-0.49,0.37,0.24,12.50,-18.50,35.50,53.650871,9.698421,7.20,0.15,12,3.950,-8,68,-5,7,3
292814,-0.14,0.00,0.99,-0.37,0.24,0.24,13.50,-24.50,41.50,53.650871,9.698421,7.20,0.15,12,3.970,-7,72,-5,7,3
292914,-0.14,-0.00,0.99,0.98,-1.83,-0.43,16.50,-21.50,37.50,53.650871,9.698421,7.20,0.13,12,3.980,-8,62,-5,7,3
293014,-0.14,0.00,0.99,-0.98,1.22,0.43,14.50,-20.50,37.50,53.650871,9.698421,7.20,0.13,12,3.940,-8,65,-6,7,3
293114,-0.13,0.00,0.99,0.00,0.00,0.00,13.50,-21.50,40.50,53.650871,9.698421,7.20,0.13,12,3.940,-7,69,-5,7,3
293214,-0.14,-0.00,0.99,0.24,-0.85,-0.06,15.50,-20.50,37.50,53.650871,9.698421,7.20,0.11,12,3.940,-7,63,-5,7,3
293314,-0.14,0.00,0.99,-0.18,0.31,0.12,16.50,-22.50,38.50,53.650871,9.698421,7.20,0.07,12,3.960,-8,64,-5,7,3
293414,-0.14,0.00,0.99,-1.95,2.62,0.85,15.50,-21.50,33.50,53.650871,9.698421,7.20,0.17,12,3.930,-7,63,-5,7,3
293516,-0.14,0.01,0.99,0.67,-0.67,-0.31,15.50,-24.50,37.50,53.650871,9.698421,7.20,0.17,12,3.930,-7,66,-5,7,3
293616,-0.13,0.00,0.98,2.99,9.03,0.06,14.50,-23.50,39.50,53.650871,9.698421,7.20,0.13,12,4.040,-7,68,-5,7,3
293716,-0.10,0.00,1.03,0.73,6.35,3.66,16.50,-25.50,38.50,53.650871,9.698421,7.20,0.09,12,3.950,-5,63,-5,7,3
293816,-0.15,-0.02,1.00,0.24,-5.43,-3.85,12.50,-22.50,37.50,53.650871,9.698421,7.20,0.09,12,3.941,-8,73,-5,7,3
293932,-0.17,0.04,0.80,8.36,-17.27,-4.09,15.50,-21.50,36.50,53.650871,9.698421,7.20,0.11,12,3.92-2,-11,68,-5,7,3
294035,-0.14,0.00,0.99,-0.12,-0.06,0.12,13.50,-23.50,34.50,53.650871,9.698421,7.20,0.06,12,3.870,-8,70,-5,7,3
294135,-0.14,-0.01,0.99,0.06,-0.37,-0.06,11.50,-30.50,33.50,53.650871,9.698421,7.20,0.06,12,3.870,-8,77,-5,7,3
294235,-0.15,0.01,0.99,0.12,-0.61,-0.06,7.50,-46.50,33.50,53.650871,9.698421,7.20,0.06,12,3.800,-8,86,-5,7,3
294335,-0.14,-0.00,0.99,0.31,-0.43,-0.12,2.50,-57.50,42.50,53.650871,9.698421,7.20,0.06,12,3.880,-7,93,-5,7,3
294435,-0.14,-0.01,0.99,-0.06,0.06,0.06,3.50,-56.50,53.50,53.650871,9.698421,7.20,0.06,12,3.910,-8,94,-5,7,3
294535,-0.15,0.01,0.98,0.31,0.00,0.06,0.50,-74.50,62.50,53.650871,9.698421,7.20,0.06,12,3.950,-8,96,-5,7,3
294635,-0.11,-0.04,0.98,0.12,-0.37,-0.06,0.50,-71.50,64.50,53.650871,9.698421,7.20,0.06,12,3.932,-6,95,-5,7,3
294738,-0.15,0.01,0.99,0.06,-0.55,-0.06,-1.50,-84.50,65.50,53.650871,9.698421,7.30,0.06,12,3.900,-8,97,-5,7,3
294838,-0.15,-0.01,0.99,0.12,-0.06,0.00,-2.50,-84.50,61.50,53.650871,9.698421,7.30,0.06,12,3.870,-8,97,-5,7,3
294938,-0.14,-0.00,0.99,-0.24,0.31,-0.12,-0.50,-84.50,66.50,53.650871,9.698421,7.30,0.22,12,3.920,-8,96,-5,7,3
295047,-0.14,0.00,0.98,-3.48,4.64,2.08,0.50,-84.50,63.50,53.650871,9.698421,7.30,0.22,12,3.870,-8,95,-5,7,3
295147,-0.13,0.01,0.99,-0.49,0.85,0.37,-0.50,-84.50,62.50,53.650871,9.698421,7.30,0.22,12,3.810,-7,95,-5,7,3
295247,-0.14,-0.02,0.99,0.37,-0.55,-0.12,-1.50,-83.50,65.50,53.650871,9.698421,7.30,0.22,12,3.910,-8,97,-5,7,3
295347,-0.15,0.01,0.98,0.06,-0.37,0.00,-0.50,-82.50,65.50,53.650871,9.698421,7.30,0.22,12,3.940,-8,96,-5,7,3
295447,-0.14,-0.01,0.99,1.71,-0.37,-0.98,-0.50,-84.50,64.50,53.650871,9.698421,7.30,0.22,12,3.890,-8,96,-5,7,3
295547,-0.15,-0.00,0.99,-0.98,0.24,0.37,1.50,-83.50,64.50,53.650871,9.698421,7.30,0.22,12,3.870,-8,95,-5,7,3
295647,-0.14,0.01,1.00,-1.04,1.46,0.67,-2.50,-83.50,63.50,53.650871,9.698421,7.30,0.22,12,3.940,-8,97,-5,7,3
295747,-0.14,-0.01,1.00,0.18,0.12,0.06,0.50,-83.50,67.50,53.650871,9.698421,7.30,0.22,12,3.890,-8,96,-5,7,3
295847,-0.16,0.02,1.00,-0.37,1.34,-1.95,-1.50,-82.50,65.50,53.650871,9.698421,7.30,0.22,12,3.86-1,-9,98,-5,7,3
295948,-0.14,-0.01,1.00,-5.25,2.01,2.32,0.50,-83.50,61.50,53.650871,9.698421,7.30,0.22,12,3.950,-8,95,-5,7,3
296048,-0.06,0.04,1.03,-4.52,9.22,6.04,-1.50,-81.50,61.50,53.650871,9.698421,7.30,0.22,12,3.79-2,-3,93,-5,7,3
296148,-0.09,0.02,1.02,3.48,-5.13,-6.59,0.50,-79.50,62.50,53.650871,9.698421,7.30,0.22,12,3.85-1,-5,93,-5,7,3
296248,-0.14,0.01,0.99,1.71,-2.75,-0.18,0.50,-82.50,65.50,53.650871,9.698421,7.30,0.22,12,3.930,-7,95,-5,7,3
296348,-0.15,-0.01,0.97,1.77,-0.06,-1.10,0.50,-81.50,62.50,53.650871,9.698421,7.30,0.22,12,3.990,-8,96,-5,7,3
296448,-0.14,-0.01,1.03,-28.44,21.30,10.62,-0.50,-78.50,65.50,53.650871,9.698421,7.30,0.22,12,3.940,-7,96,-5,7,3
296548,-0.13,-0.00,0.98,14.04,-21.12,-7.02,1.50,-82.50,64.50,53.650871,9.698421,7.30,0.22,12,3.900,-7,94,-5,7,3
296650,-0.12,0.01,0.98,5.92,-7.93,-3.42,2.50,-81.50,64.50,53.650871,9.698421,7.30,0.22,12,3.940,-6,93,-5,7,3
296762,-0.13,0.00,0.99,6.59,-4.15,-2.81,1.50,-80.50,64.50,53.650871,9.698421,7.30,0.22,12,3.950,-7,94,-6,7,3
296862,-0.13,-0.00,0.99,2.08,-1.34,-0.49,1.50,-81.50,64.50,53.650871,9.698421,7.30,0.22,12,3.930,-7,94,-5,7,3
296964,-0.13,-0.01,1.01,5.07,-3.66,-2.08,2.50,-82.50,68.50,53.650871,9.698421,7.30,0.22,12,3.840,-7,94,-5,7,3
297064,-0.15,-0.01,0.99,12.02,-5.62,-6.47,1.50,-80.50,66.50,53.650871,9.698421,7.30,0.22,12,3.870,-8,96,-5,7,3
297164,-0.17,-0.01,1.01,1.22,-0.49,-1.95,1.50,-82.50,63.50,53.650871,9.698421,7.30,0.22,12,3.940,-9,96,-5,7,3
297264,-0.15,-0.01,0.96,-0.55,0.67,0.24,3.50,-83.50,65.50,53.650871,9.698421,7.30,0.22,12,3.830,-8,94,-5,7,3
297364,-0.12,-0.01,1.00,2.20,-4.76,1.28,0.50,-81.50,65.50,53.650871,9.698421,7.30,0.22,12,3.880,-6,95,-5,7,3
297464,-0.14,-0.01,0.98,-1.40,0.24,0.24,1.50,-80.50,67.50,53.650871,9.698421,7.30,0.22,12,3.860,-8,95,-5,7,3
297564,-0.13,-0.01,1.01,0.31,-0.06,-0.06,1.50,-79.50,65.50,53.650871,9.698421,7.30,0.22,12,3.940,-7,94,-5,7,3
297664,-0.13,-0.00,0.98,4.58,-2.56,-1.34,0.50,-79.50,64.50,53.650871,9.698421,7.30,0.22,12,3.920,-7,95,-5,7,3
297764,-0.12,-0.00,0.99,8.24,-12.21,-3.66,2.50,-80.50,65.50,53.650871,9.698421,7.30,0.22,12,3.930,-6,93,-5,7,3
297864,-0.13,0.00,1.00,15.62,-11.72,-6.41,1.50,-81.50,62.50,53.650871,9.698421,7.30,0.22,12,3.970,-7,94,-5,7,3
297964,-0.16,-0.01,0.95,-2.38,3.48,1.40,0.50,-80.50,61.50,53.650871,9.698421,7.30,0.06,12,3.940,-9,96,-5,7,3
298064,-0.14,-0.03,0.99,-6.77,5.25,2.87,1.50,-79.50,62.50,53.650871,9.698421,7.30,0.09,12,3.941,-8,95,-5,7,3
298164,-0.14,-0.00,0.99,-1.28,0.49,0.49,2.50,-80.50,62.50,53.650871,9.698421,7.30,0.09,12,3.930,-8,94,-5,7,3
298271,-0.12,-0.02,1.00,-0.12,0.24,-0.06,0.50,-80.50,54.50,53.650871,9.698421,7.30,0.09,12,3.991,-7,94,-5,7,3
298402,-0.13,-0.01,1.03,-3.97,3.48,1.71,4.50,-78.50,67.50,53.650871,9.698421,7.30,0.09,12,3.910,-7,92,-5,7,3
298502,-0.11,-0.01,1.03,-10.50,8.30,4.09,3.50,-78.50,67.50,53.650871,9.698421,7.30,0.09,12,3.930,-6,92,-5,7,3
298602,-0.13,-0.01,0.98,7.81,-5.19,-1.40,0.50,-76.50,62.50,53.650871,9.698421,7.30,0.06,12,3.930,-7,95,-5,7,3
298702,-0.15,-0.01,0.99,0.00,-0.43,0.55,0.50,-77.50,63.50,53.650871,9.698421,7.30,0.15,12,4.060,-8,96,-5,7,3
298803,-0.13,-0.01,0.98,1.71,-2.38,-1.34,2.50,-80.50,67.50,53.650871,9.698421,7.20,0.17,12,3.860,-7,94,-5,7,3
